{
  "title": "External Data File Specifications",
  "version": "2.4",
  "settings": {
    "pagenumber": 0,
    "editable": true,
    "fullscreenEnabled": false,
    "parameters": {
      "neodash_studyroot_uid": "",
      "neodash_studyroot_uid_display": "",
      "neodash_studyref": "",
      "neodash_document_version": "",
      "neodash_supplier_name": "",
      "neodash_lab_specification_version": "",
      "neodash_lab_specification_version_display": "",
      "neodash_lab_spec_dataset": "PK",
      "neodash_lab_spec_dataset_display": "PK",
      "neodash_pharmacology_type": "PK",
      "neodash_pharmacology_type_display": "PK",
      "neodash_": [
        "%"
      ],
      "neodash_lab_supplier_name": "",
      "neodash_lab_supplier_name_display": "",
      "neodash_ab_supplier_name": "",
      "neodash_ab_supplier_name_display": "",
      "neodash_pk_supplier_name": "",
      "neodash_pk_supplier_name_display": "",
      "neodash_ab_supplier___manual": "",
      "neodash_pk_supplier___manual": "",
      "neodash_lab_supplier___manual": ""
    },
    "theme": "light",
    "darkLuma": 200,
    "queryTimeLimit": 60000,
    "disableRowLimiting": true
  },
  "pages": [
    {
      "title": "Instructions",
      "reports": [
        {
          "id": "0823e868-e15e-40a4-948a-5b8681357450",
          "title": "About this document",
          "query": "The purpose of this document is to facilitate delivery of data from a supplier by describing the data file structure and content requirements. It is a template that should be adapted to each study according to the template guidance text. If you are in doubt about how to use the template, please contact your Project CDP.\n\n\n\n\nThis template is aligned with NN Master Model version 3.3-NN02. If you use the template with another Master Model version, please consider if adjustments are needed (consult the SDTM Programmer).\n\n\n",
          "width": 9,
          "height": 4,
          "x": 0,
          "y": 0,
          "type": "text",
          "selection": {},
          "settings": {},
          "schema": []
        },
        {
          "id": "93126cbd-6d5c-4506-aea0-981ba940f1d8",
          "title": "Text colour codes",
          "query": "WITH apoc.map.fromLists(['Black text','Red text','Green text'],[\"Mandatory to be included without changes.\nException: Sheets, file names and sections that are not relevant for the supplier should be deleted according to the sheet instructions below and guidance on the individual sheets.\", \"Text that should be edited manually.\nInclude as is or modify/delete text according to study and change to black text.\",\"Internal guidance text, which should be deleted before finalisation of the document.\"]) as guide_text\nUNWIND keys(guide_text) as text_color\nRETURN text_color as `Text color`, guide_text[text_color] as Instruction ",
          "width": 11,
          "height": 4,
          "x": 9,
          "y": 0,
          "type": "table",
          "selection": {},
          "settings": {
            "allowDownload": true,
            "backgroundColor": "none",
            "actionsRules": [
              {
                "condition": "Click",
                "field": "",
                "value": "",
                "customization": "set variable",
                "customizationValue": ""
              }
            ],
            "styleRules": [
              {
                "field": "Text color",
                "condition": "contains",
                "value": "Red",
                "customization": "cell text color",
                "customizationValue": "red"
              },
              {
                "field": "Text color",
                "condition": "contains",
                "value": "Black",
                "customization": "cell text color",
                "customizationValue": "black"
              },
              {
                "field": "Text color",
                "condition": "contains",
                "value": "Green",
                "customization": "cell text color",
                "customizationValue": "green"
              }
            ],
            "compact": true,
            "wrapContent": true,
            "columnWidths": "[0.5,2]"
          },
          "schema": []
        }
      ]
    },
    {
      "title": "Dynamic text replacement",
      "reports": [
        {
          "id": "5cb8dc55-d741-42a6-8fe3-e9f20baffbe7",
          "title": "Dynamic text",
          "query": "MATCH (n0:StudyRoot {uid:$neodash_studyroot_uid})-[r1:LATEST]->(n1:StudyValue)\nWITH CASE WHEN (n1.study_number is not null and n1.study_acronym is not null) THEN (n1.study_id_prefix + '-'+n1.study_number+ \" [\" + n1.study_acronym + \"]\") ELSE CASE WHEN n1.study_acronym is null THEN (n1.study_id_prefix + '-'+n1.study_number) ELSE (n1.study_id_prefix + \" [\" + n1.study_acronym + \"]\") END END AS Value\nRETURN DISTINCT \"Study ID\" AS Label,Value\nUNION\nMATCH (n0:StudyRoot {uid:$neodash_studyroot_uid})\nWITH CASE WHEN COALESCE(\n  NULLIF($neodash_lab_supplier_name, \"\"),\n  NULLIF($neodash_lab_supplier___manual, \"\")) is null  THEN \"To be provided\" ELSE COALESCE(\n  NULLIF($neodash_lab_supplier_name, \"\"),\n  NULLIF($neodash_lab_supplier___manual, \"\")) END as Value \nRETURN DISTINCT \"LAB Supplier name\" AS Label, Value\nUNION\nMATCH (n0:StudyRoot {uid:$neodash_studyroot_uid})\nWITH CASE WHEN COALESCE(\n  NULLIF($neodash_pk_supplier_name, \"\"),\n  NULLIF($neodash_pk_supplier___manual, \"\")) is null  THEN \"To be provided\" ELSE COALESCE(\n  NULLIF($neodash_pk_supplier_name, \"\"),\n  NULLIF($neodash_pk_supplier___manual, \"\")) END as Value \nRETURN DISTINCT \"PK Supplier name\" AS Label, Value\nUNION\nMATCH (n0:StudyRoot {uid:$neodash_studyroot_uid})\nWITH CASE WHEN COALESCE(\n  NULLIF($neodash_ab_supplier_name, \"\"),\n  NULLIF($neodash_ab_supplier___manual, \"\")) is null  THEN \"To be provided\" ELSE COALESCE(\n  NULLIF($neodash_ab_supplier_name, \"\"),\n  NULLIF($neodash_ab_supplier___manual, \"\")) END as Value \nRETURN DISTINCT \"AB Supplier name\" AS Label, Value\nUNION\nMATCH (n0:StudyRoot {uid:$neodash_studyroot_uid})\nWITH CASE WHEN $neodash_document_version=\"\"  THEN \"To be provided\" ELSE $neodash_document_version END as Value \nRETURN DISTINCT \"Document version\" AS Label, Value\nUNION\nMATCH (n0:StudyRoot {uid:$neodash_studyroot_uid})\nRETURN DISTINCT \"Document date\" AS Label,date() AS Value\n\n",
          "width": 24,
          "height": 4,
          "x": 0,
          "y": 6,
          "type": "table",
          "selection": {},
          "settings": {
            "allowDownload": true,
            "refreshButtonEnabled": true,
            "styleRules": [
              {
                "field": "Value",
                "condition": "=",
                "value": "To be provided",
                "customization": "cell text color",
                "customizationValue": "red"
              }
            ]
          }
        },
        {
          "id": "35d3ecb0-d59f-4762-9020-928e712031ca",
          "title": "Instructions",
          "query": "Replace the \"To be provided\" text in the 'Type dynmaic text panel':\n\n• Study ID: Study ID selected. The study ID will automatically be reflected in the other sheets where the study ID is referenced.\n\n• Supplier name: Either select from the Library of predefined Suppliers or insert name of supplier as specified in the column 'Short Supplier Name' in the document 'List of MFT suppliers'.\n\n• Document version: Enter the version that should be shown in the document header.\n\n• Document date: Todays date Will be shown in the document header. \n\n\n",
          "width": 9,
          "height": 3,
          "x": 0,
          "y": 0,
          "type": "text",
          "selection": {},
          "settings": {},
          "schema": []
        },
        {
          "id": "97f4e6dc-3d60-41cd-b031-52640443e669",
          "title": "Select Study (required)",
          "query": "MATCH (n1:StudyRoot)-[:LATEST]->(n2:StudyValue)\nWITH n1, CASE WHEN (n2.study_number is not null and n2.study_acronym is not null) THEN (n2.study_id_prefix + '-'+n2.study_number+ \" [\" + n2.study_acronym + \"]\") ELSE CASE WHEN n2.study_acronym is null THEN (n2.study_id_prefix + '-'+n2.study_number) ELSE (n2.study_id_prefix + \" [\" + n2.study_acronym + \"]\") END END AS StudyRef\nRETURN DISTINCT 'Select' as Click,  StudyRef, n1.uid AS __uid",
          "width": 9,
          "height": 3,
          "x": 0,
          "y": 3,
          "type": "table",
          "selection": {},
          "settings": {
            "type": "Custom Query",
            "entityType": "StudyRef",
            "parameterName": "neodash_studyref",
            "actionsRules": [
              {
                "condition": "Click",
                "field": "Click",
                "value": "__uid",
                "customization": "set variable",
                "customizationValue": "studyroot_uid"
              }
            ],
            "compact": true,
            "columnWidths": "[1,4,1]",
            "refreshButtonEnabled": true,
            "wrapContent": true
          },
          "schema": []
        },
        {
          "id": "52e88212-0bf6-4d70-ae26-2f2ed03d501e",
          "title": "Type dynamic text",
          "query": "\n\n",
          "width": 9,
          "height": 4,
          "x": 9,
          "y": 0,
          "type": "forms",
          "selection": {},
          "settings": {
            "formFields": [
              {
                "type": "Free Text",
                "settings": {
                  "type": "Free Text",
                  "entityType": "Document Version",
                  "parameterName": "neodash_document_version"
                },
                "query": "RETURN true;",
                "id": 1
              },
              {
                "type": "Free Text",
                "settings": {
                  "type": "Free Text",
                  "entityType": "Lab Supplier - Manual",
                  "parameterName": "neodash_lab_supplier___manual"
                },
                "query": "RETURN true;",
                "id": 2
              },
              {
                "type": "Free Text",
                "settings": {
                  "type": "Free Text",
                  "entityType": "PK Supplier - Manual",
                  "parameterName": "neodash_pk_supplier___manual"
                },
                "query": "RETURN true;",
                "id": 4
              },
              {
                "type": "Free Text",
                "settings": {
                  "type": "Free Text",
                  "entityType": "AB Supplier - Manual",
                  "parameterName": "neodash_ab_supplier___manual"
                },
                "query": "RETURN true;",
                "id": 3
              }
            ],
            "runButtonText": "Save Document Version",
            "confirmationMessage": "Saved",
            "hasSubmitMessage": true,
            "hasSubmitButton": false,
            "clearParametersAfterSubmit": true
          },
          "schema": []
        },
        {
          "id": "ea153084-1574-440a-8606-650cba4ef02f",
          "title": "Select lab specification version (mandatory)",
          "query": "MATCH (model_root:DataModelIGRoot)-->(n:DataModelIGValue)\n-[:HAS_DATASET]->(dataset_value:DatasetInstance)<--(:Dataset {uid: \"LAB\"})\nWHERE toLower(apoc.text.join([n.`name`,'(v',n.version_number,')'],\"\")) CONTAINS toLower($input) \nRETURN DISTINCT apoc.text.join([n.`name`,'(v',n.version_number,')'],\"\") as value, apoc.text.join([n.`name`,'(v',n.version_number,')'],\"\") as display ORDER BY size(toString(value)) ASC LIMIT 5\n\n\n",
          "width": 9,
          "height": 2,
          "x": 9,
          "y": 4,
          "type": "select",
          "selection": {},
          "settings": {
            "type": "Custom Query",
            "entityType": "Lab Specification Version",
            "parameterName": "neodash_lab_specification_version",
            "refreshButtonEnabled": true,
            "suggestionLimit": 100
          },
          "schema": []
        },
        {
          "id": "bc5dc671-8efb-41f2-a0b7-6b3753e3f86b",
          "title": "Select Lab Supplier",
          "query": "match(n:DataSupplierValue)-[:HAS_TYPE]->(context:CTTermContext)-[:HAS_SELECTED_TERM]->(ct_root:CTTermRoot)<-[:HAS_TERM_ROOT]-(supp_type:CTCodelistTerm) where supp_type.submission_value='LAB DATA EXCHANGE FILES' \nWITH n\nWHERE toLower(toString(n.`name`)) CONTAINS toLower($input) \nRETURN DISTINCT n.`name` as value,  n.`name` as display ORDER BY size(toString(value)) ASC LIMIT 100  ",
          "width": 6,
          "height": 2,
          "x": 18,
          "y": 0,
          "type": "select",
          "selection": {},
          "settings": {
            "type": "Custom Query",
            "entityType": "Lab Supplier Name",
            "parameterName": "neodash_lab_supplier_name"
          },
          "schema": []
        },
        {
          "id": "aeb8e04a-aae6-4a1a-b8ee-389f95b1d2e0",
          "title": "Select PK Supplier",
          "query": "match(n:DataSupplierValue)-[:HAS_TYPE]->(context:CTTermContext)-[:HAS_SELECTED_TERM]->(ct_root:CTTermRoot)<-[:HAS_TERM_ROOT]-(supp_type:CTCodelistTerm) where supp_type.submission_value='LAB DATA EXCHANGE FILES' \nWITH n\nWHERE toLower(toString(n.`name`)) CONTAINS toLower($input) \nRETURN DISTINCT n.`name` as value,  n.`name` as display ORDER BY size(toString(value)) ASC LIMIT 100  ",
          "width": 6,
          "height": 2,
          "x": 18,
          "y": 2,
          "type": "select",
          "selection": {},
          "settings": {
            "type": "Custom Query",
            "entityType": "PK Supplier Name",
            "parameterName": "neodash_pk_supplier_name"
          },
          "schema": []
        },
        {
          "id": "1a5c3371-a098-4e7e-8c51-1594bb6fb93c",
          "title": "Select AB Supplier",
          "query": "match(n:DataSupplierValue)-[:HAS_TYPE]->(context:CTTermContext)-[:HAS_SELECTED_TERM]->(ct_root:CTTermRoot)<-[:HAS_TERM_ROOT]-(supp_type:CTCodelistTerm) where supp_type.submission_value='LAB DATA EXCHANGE FILES' \nWITH n\nWHERE toLower(toString(n.`name`)) CONTAINS toLower($input) \nRETURN DISTINCT n.`name` as value,  n.`name` as display ORDER BY size(toString(value)) ASC LIMIT 100  ",
          "width": 6,
          "height": 2,
          "x": 18,
          "y": 4,
          "type": "select",
          "selection": {},
          "settings": {
            "type": "Custom Query",
            "entityType": "AB Supplier Name",
            "parameterName": "neodash_ab_supplier_name"
          },
          "schema": []
        }
      ]
    },
    {
      "title": "Visit / Time points",
      "reports": [
        {
          "id": "63faa4fe-04b0-4f6a-be95-c765df55d6af",
          "title": "Visits",
          "query": "MATCH (n0:StudyRoot {uid:$neodash_studyroot_uid})-->(n1:StudyValue)-[r1:HAS_STUDY_VISIT]->(n2:StudyVisit)-[r2:HAS_VISIT_NAME]->(n3:VisitNameRoot)-->(n4:VisitNameValue)\nWITH n4, n2, toInteger(n2.unique_visit_number) as visit_order\nWITH n4,n2 order by visit_order\nRETURN DISTINCT\nn4.name AS `Visit label in protocol`, \n\"To be provided\" AS `Visit label in supplier database`,\nn2.short_visit_label AS `Visit in data file`\n\n\n",
          "width": 18,
          "height": 8,
          "x": 0,
          "y": 0,
          "type": "table",
          "selection": {},
          "settings": {
            "compact": true,
            "allowDownload": true,
            "styleRules": [
              {
                "field": "Visit label in supplier database",
                "condition": "=",
                "value": "To be provided",
                "customization": "cell text color",
                "customizationValue": "red"
              }
            ],
            "refreshButtonEnabled": true
          }
        },
        {
          "id": "d5b504a8-e387-4ae8-ba76-141d5c4cf72f",
          "title": "Study selected",
          "query": "MATCH (n0:StudyRoot {uid:$neodash_studyroot_uid})-[r1:LATEST]->(n1:StudyValue)\nWITH CASE WHEN (n1.study_number is not null and n1.study_acronym is not null) THEN (n1.study_id_prefix + '-'+n1.study_number+ \" [\" + n1.study_acronym + \"]\") ELSE CASE WHEN n1.study_acronym is null THEN (n1.study_id_prefix + '-'+n1.study_number) ELSE (n1.study_id_prefix + \" [\" + n1.study_acronym + \"]\") END END AS Value\nRETURN DISTINCT Value\n\n\n",
          "width": 6,
          "height": 2,
          "x": 18,
          "y": 0,
          "type": "value",
          "selection": {},
          "settings": {
            "fontSize": 22,
            "monospace": true,
            "textAlign": "center",
            "verticalAlign": "middle"
          },
          "schema": []
        },
        {
          "id": "a71ae7b4-8594-45fd-81a9-cf2b474af4b4",
          "title": "Spec Version selected",
          "query": "return $neodash_lab_specification_version",
          "width": 6,
          "height": 2,
          "x": 18,
          "y": 2,
          "type": "value",
          "selection": {},
          "settings": {
            "fontSize": 20,
            "refreshButtonEnabled": false,
            "monospace": true,
            "textAlign": "center",
            "verticalAlign": "middle"
          },
          "schema": []
        }
      ]
    },
    {
      "title": "LAB Structure",
      "reports": [
        {
          "id": "75dcfa00-b46d-4e1c-a699-a2981b421679",
          "title": " Data file specification for laboratory findings",
          "query": "LAB data description: Laboratory data such as haematology, biochemistry, urinalysis and laboratory biomarkers.\n\n- All columns listed in the table below should be present in the data file and their order should not be changed. \n- For columns that are not applicable, the column header should remain, and the content in the column should be set to NULL (i.e. left blank) in each record in the file. \n-  The data file header line with the pipe-delimited column headers is shown for your reference below.\n- The instructions in 'Mandatory/optional' specify if it is mandatory to populate a column. [Exceptions from this can, in rare cases, be agreed with the supplier while preparing the data specification.]\n[Addition of study-specific data file columns to the specification should be discussed in an Implementation Group meeting. If additional data file columns are required, e.g. QNAMs, please add the additional columns as new rows at the end of this table and ensure to add the extra columns to the relevant tables in DMW for the study. If an added column should  be compliant with a codelist, please add the data file column to the content sheet so that relevant codelist submission values can be communicated to the supplier.\nIn Phase I studies, it can be relevant to add SEX for the subject's gender and DOB for the date of birth, which can be partial depending on the country. These columns can be used for checks in CDMS and will not be mapped to SDTM.]\n- For codelist-controlled columns, supplier values should be mapped to the corresponding CDISC codelist values or to Novo Nordisk-defined additions to the codelists that are extensible. See the relevant codelist values as well as study-specific file content in the 'LAB, content' sheet. \n- The data types specified in the table below are the Oracle database data types that the data will be loaded into. VARCHAR2 stores alphanumeric strings.\n\nThe maximum length is specified for each column. Data type NUMBER stores numeric data.\n\n\nData file header line:\nSTUDYID|DOMAIN|SITE|SUBJID|FSUBJID|VISIT|LBREFID|TOPICCD|SUPTEST|LBORRES|UNITCOLL|LBORNRLO|LBORNRHI|LBNRIND|LBSTAT|LBREASND|LBNAM|LBLOINC|LOINCVER|LBSPEC|LBSPCCND|LBMETHOD|LBANMETH|LBFAST|LBDTC|LBTPT|SUBEVNUM|COMMENTALL",
          "width": 18,
          "height": 4,
          "x": 0,
          "y": 0,
          "type": "text",
          "selection": {},
          "settings": {},
          "schema": []
        },
        {
          "id": "68cecea5-7acb-46a4-bfb7-d130f10b29d0",
          "title": "LAB, structure",
          "query": "MATCH\n  (model_root:DataModelIGRoot)-->\n  (model_value:DataModelIGValue)-[:HAS_DATASET]->\n  (dataset_value:DatasetInstance)<--\n  (:Dataset {uid: \"LAB\"})\nWHERE\n  toLower(\n    apoc.text.join(\n      [model_value.name, '(v', model_value.version_number, ')'],\n      \"\"\n    )) =\n  toLower($neodash_lab_specification_version)\nMATCH\n  (dataset_value)-[rel:HAS_DATASET_VARIABLE]->\n  (variable_value:DatasetVariableInstance)<--\n  (variable_root:DatasetVariable)\nWHERE rel.version_number = model_value.version_number\nOPTIONAL MATCH\n  (variable_value)-->\n  (var_class_inst:VariableClassInstance)<--\n  (var_class:VariableClass)-->\n  (sponModVarClasInst:SponsorModelVariableClassInstance)\nWITH\n  variable_root,\n  variable_value,\n  var_class_inst,\n  var_class,\n  sponModVarClasInst,\n  apoc.text.split(rel.ordinal, \"\\.\") AS split_ordinal\nORDER BY toInteger(split_ordinal[0]), toInteger(split_ordinal[1])\nCALL\n  apoc.case(\n    [\n      variable_root.uid = \"STUDYID\",\n      'MATCH (n:StudyRoot {uid:$neodash_studyroot_uid})-[:LATEST]->(s:StudyValue) RETURN s.study_id_prefix + \"-\" + s.study_number AS examples',\n      variable_root.uid = \"VISIT\",\n      'MATCH p=(n:StudyRoot {uid:$neodash_studyroot_uid})-[:LATEST]->(s:StudyValue)-->(visit:StudyVisit)-->(:StudyActivitySchedule)<--(:StudyActivity)-->(:StudyActivitySubGroup)-->(asgv:ActivitySubGroupValue)-->(:ActivityValidGroup)-->(:ActivityGroupValue{name: \"Laboratory Assessments\"}) WHERE asgv.name <> \"Antibodies\" and asgv.name <> \"PK Sampling\" WITH DISTINCT visit.short_visit_label AS visit_label, visit.visit_number AS visit_number ORDER BY visit_number RETURN collect(visit_label) AS examples',\n      variable_root.uid = \"LBMETHOD\",\n      'MATCH (:StudyRoot {uid: $neodash_studyroot_uid})-[:LATEST]->(s:StudyValue)-[:HAS_STUDY_VISIT]->(visit:StudyVisit)-[:STUDY_VISIT_HAS_SCHEDULE]->(:StudyActivitySchedule)<-[:STUDY_ACTIVITY_HAS_SCHEDULE]-(s_act:StudyActivity)-[:STUDY_ACTIVITY_HAS_STUDY_ACTIVITY_SUBGROUP]->(:StudyActivitySubGroup)-[:HAS_SELECTED_ACTIVITY_SUBGROUP]->(asgv:ActivitySubGroupValue)-[:HAS_GROUP]->(sg:ActivityValidGroup)-[:IN_GROUP]->(:ActivityGroupValue {name: \"Laboratory Assessments\"}) WHERE asgv.name <> \"Antibodies\" AND asgv.name <> \"PK Sampling\" WITH DISTINCT s, visit, s_act MATCH(s_act)-[:HAS_SELECTED_ACTIVITY]->(p_act:ActivityValue)-[:HAS_GROUPING]->(g:ActivityGrouping)<-[:HAS_ACTIVITY]-(p_ai:ActivityInstanceValue)<-[r1:HAS_SELECTED_ACTIVITY_INSTANCE]-(s_ai:StudyActivityInstance)<-[r2:HAS_STUDY_ACTIVITY_INSTANCE]-(sv:StudyValue)-[r3:HAS_STUDY_VISIT]->(visit:StudyVisit) WITH DISTINCT s, visit, p_act, p_ai MATCH(p_ai)-[r4:CONTAINS_ACTIVITY_ITEM]->(p_aitm2:ActivityItem)<--(:ActivityItemClassRoot)-[:LATEST]->(:ActivityItemClassValue {name:\"method\"}) WITH DISTINCT p_aitm2 OPTIONAL MATCH(p_aitm2)-[r4:HAS_CT_TERM]->(ct_context:CTTermContext)-[r5_1:HAS_SELECTED_TERM]->(n6:CTTermRoot)-[r6:HAS_ATTRIBUTES_ROOT]->(n7:CTTermAttributesRoot)-[r7:HAS_VERSION]->(n8:CTTermAttributesValue) OPTIONAL MATCH(n6)<-[:HAS_TERM_ROOT]-(subm_val:CTCodelistTerm) RETURN collect(distinct subm_val.submission_value) AS examples'\n    ],\n    'RETURN \"\" AS examples',\n    {neodash_studyroot_uid: $neodash_studyroot_uid}\n  )\n  YIELD value\nWITH\n  variable_root,\n  variable_value,\n  var_class_inst,\n  var_class,\n  sponModVarClasInst,\n  split_ordinal,\n  value,\n  CASE\n    WHEN variable_root.uid = 'LBNAM' THEN COALESCE(\n  NULLIF($neodash_lab_supplier_name, \"\"),\n  NULLIF($neodash_lab_supplier___manual, \"\"))\n    ELSE value.examples\n  END AS Examples\nRETURN DISTINCT\n  split_ordinal AS Position,\n  variable_root.uid AS `Column Header`,\n  variable_value.simple_datatype AS `Data type`,\n  variable_value.length AS `Max Length`,\n  variable_value.label AS `Content Description`,\n  sponModVarClasInst.core AS Mandatory,\n  Examples",
          "width": 24,
          "height": 9,
          "x": 0,
          "y": 4,
          "type": "table",
          "selection": {},
          "settings": {
            "compact": true,
            "allowDownload": true,
            "columnWidths": "[1, 1, 1, 1, 8, 1,2]",
            "wrapContent": true,
            "refreshButtonEnabled": true
          }
        },
        {
          "id": "6aec5ebf-451a-416e-8461-5ae6e406bd04",
          "title": "Study selected",
          "query": "MATCH (n0:StudyRoot {uid:$neodash_studyroot_uid})-[r1:LATEST]->(n1:StudyValue)\nWITH CASE WHEN (n1.study_number is not null and n1.study_acronym is not null) THEN (n1.study_id_prefix + '-'+n1.study_number+ \" [\" + n1.study_acronym + \"]\") ELSE CASE WHEN n1.study_acronym is null THEN (n1.study_id_prefix + '-'+n1.study_number) ELSE (n1.study_id_prefix + \" [\" + n1.study_acronym + \"]\") END END AS Value\nRETURN DISTINCT Value\n\n",
          "width": 6,
          "height": 2,
          "x": 18,
          "y": 0,
          "type": "value",
          "selection": {},
          "settings": {
            "fontSize": 22,
            "monospace": true,
            "textAlign": "center",
            "verticalAlign": "middle"
          },
          "schema": []
        },
        {
          "id": "f811ae2a-f154-45ff-ab20-c26adf84842d",
          "title": "Spec Version selected",
          "query": "return $neodash_lab_specification_version",
          "width": 6,
          "height": 2,
          "x": 18,
          "y": 2,
          "type": "value",
          "selection": {},
          "settings": {
            "fontSize": 20,
            "monospace": true,
            "textAlign": "center",
            "verticalAlign": "middle"
          },
          "schema": []
        }
      ]
    },
    {
      "title": "LAB Content",
      "reports": [
        {
          "id": "20629815-c8dc-492e-8030-8d51f2de45b4",
          "title": "Expected data content for laboratory findings",
          "query": "The table below should be used as a tool to identify the topic codes and codelist values that should be in the LAB data file from the supplier. \n\n  - CDP-DMW: Fill in the grey column based on the protocol. [If you are in doubt about which assessments are relevant for the supplier, please reach out to the CTDM in the study.]\n\n  - CDP-DMW and supplier collaboration: Fill in the blue columns based on information from the supplier's system.\n\n  - CDP-DMW and SDTM Programmer collaboration: Using the information from the supplier in the blue columns, fill in the green columns, which should reflect the expected content of the data file. For example, the green 'UNITCOLL' column should be populated with the codelist-compliant synonym of the blue 'Supplier unit'.\n\n  - Supplier: Use the information in the green columns when creating the data file.\n\n[It is important to consider data type (e.g. numeric or categoric), specimen and unit when selecting the topic code. \nUNITCOLL in the table below should be populated with a unit that is synonymous with the supplier unit, meaning that the supplier will not do result conversion. Note that the UNITCOLL unit does not have to be the standard unit of the topic code, as long as it is possible to do a conversion from UNITCOLL unit to standard unit in the SDTM Generation Framework. This requires that the standard unit of the topic code is either in the same unit dimension as the UNITCOLL unit or a complex conversion should be available in GCMD for the two units.\n\nWhen populating codelist-controlled columns, look up CDISC or sponsor-defined submission values in StandVIEW. \nConsult the Implementation Group Standards Developer for the study if in doubt about topic codes or codelist values.\n\nThe green columns marked with red header text can be deleted if the supplier is not expected to deliver that information, but the empty columns should still be present in the data file.\n\nIf it is impossible for the supplier to provide TOPICCD, the supplier should provide other information, e.g. SUPTEST and study-specific data file columns, so that TOPICCD can be derived with an expression in DMW.\nThe assessment examples shown in red text below do not necessarily represent actual data in a study.]\n\n\n",
          "width": 18,
          "height": 4,
          "x": 0,
          "y": 0,
          "type": "text",
          "selection": {},
          "settings": {},
          "schema": []
        },
        {
          "id": "05474e92-e761-4dff-b9d1-844ee119147f",
          "title": "LAB Content",
          "query": "MATCH\n  (:StudyRoot {uid: $neodash_studyroot_uid})-[:LATEST]->\n  (s:StudyValue)-[:HAS_STUDY_VISIT]->\n  (visit:StudyVisit)-[:STUDY_VISIT_HAS_SCHEDULE]->\n  (:StudyActivitySchedule)<-[:STUDY_ACTIVITY_HAS_SCHEDULE]-\n  (s_act:StudyActivity)-[:STUDY_ACTIVITY_HAS_STUDY_ACTIVITY_SUBGROUP]->\n  (:StudyActivitySubGroup)-[:HAS_SELECTED_ACTIVITY_SUBGROUP]->\n  (asgv:ActivitySubGroupValue)-[:HAS_GROUP]->\n  (sg:ActivityValidGroup)-[:IN_GROUP]->\n  (:ActivityGroupValue {name: \"Laboratory Assessments\"}),(s_act)-[:HAS_SELECTED_ACTIVITY]->\n  (p_act:ActivityValue)\nWHERE asgv.name <> \"Antibodies\" AND asgv.name <> \"PK Sampling\"  AND asgv.name <> \"Pharmacodynamics\"\nWITH DISTINCT s, visit, s_act,p_act\nMATCH\n  (s_act)-[:HAS_SELECTED_ACTIVITY]->\n  (p_act:ActivityValue)-[:HAS_GROUPING]->\n  (g:ActivityGrouping)<-[:HAS_ACTIVITY]-\n  (p_ai:ActivityInstanceValue)<-[:HAS_SELECTED_ACTIVITY_INSTANCE]-\n  (:StudyActivityInstance)<-[:HAS_STUDY_ACTIVITY_INSTANCE]-\n  (:StudyValue)-[:HAS_STUDY_VISIT]->\n  (visit:StudyVisit)\nWITH DISTINCT s, visit, p_act, p_ai\nCALL {\n  WITH s, visit, p_act, p_ai\n  OPTIONAL MATCH (p_ai)-[:CONTAINS_ACTIVITY_ITEM]->(p_aitm1:ActivityItem)\n  WITH DISTINCT p_aitm1\n  OPTIONAL MATCH\n    (p_aitm1)-[:HAS_UNIT_DEFINITION]->\n    (:UnitDefinitionRoot)-[:LATEST]->\n    (p_unitdef:UnitDefinitionValue)\n  RETURN collect(DISTINCT p_unitdef.name) AS unitcoll\n}\nCALL {\n  WITH s, visit, p_act, p_ai\n  OPTIONAL MATCH\n    (p_ai)-[:CONTAINS_ACTIVITY_ITEM]->\n    (p_aitm1:ActivityItem)<--\n    (:ActivityItemClassRoot)-[:LATEST]->\n    (:ActivityItemClassValue {name: \"specimen\"})\n  WITH DISTINCT p_aitm1\n  OPTIONAL MATCH\n  (p_aitm1)-[:HAS_CT_TERM]->\n  (:CTTermContext)-[:HAS_SELECTED_TERM]->\n  (:CTTermRoot)<-[:HAS_TERM_ROOT]-(subm_val1:CTCodelistTerm)\n  RETURN subm_val1.submission_value AS lbspec\n}\nCALL {\n  WITH s, visit, p_act, p_ai\n  OPTIONAL MATCH\n    (p_ai)-[:CONTAINS_ACTIVITY_ITEM]->\n    (p_aitm2:ActivityItem)<--\n    (:ActivityItemClassRoot)-[:LATEST]->\n    (:ActivityItemClassValue {name: \"method\"})\n  WITH DISTINCT p_aitm2\n  OPTIONAL MATCH\n    (p_aitm2)-[:HAS_CT_TERM]->\n    (:CTTermContext)-[:HAS_SELECTED_TERM]->\n    (:CTTermRoot)<-[:HAS_TERM_ROOT]-(subm_val2:CTCodelistTerm)\n  RETURN subm_val2.submission_value AS lbmethod\n}\nCALL {\n  WITH s, visit, p_act, p_ai\n  OPTIONAL MATCH\n    (p_ai)-[:CONTAINS_ACTIVITY_ITEM]->\n    (p_aitm3:ActivityItem)<--\n    (:ActivityItemClassRoot)-[:LATEST]->\n    (:ActivityItemClassValue {name: \"original_result\"})\n  WITH DISTINCT p_aitm3\n  OPTIONAL MATCH\n    (p_aitm3)-[:HAS_CT_TERM]->\n    (:CTTermContext)-[:HAS_SELECTED_TERM]->\n    (:CTTermRoot)<-[:HAS_TERM_ROOT]-(subm_val3:CTCodelistTerm)\n  RETURN collect(DISTINCT subm_val3.submission_value) AS lbstresc\n}\nWITH\n  p_act,\n  unitcoll,\n  lbstresc,\n  p_ai,\n  CASE\n    WHEN size(lbmethod) > 0 THEN lbmethod\n    ELSE 'To be provided'\n  END AS lbmethod,\n  CASE\n    WHEN size(lbspec) > 0 THEN lbspec\n    ELSE 'To be provided'\n  END AS lbspec\n  RETURN DISTINCT p_act.name AS `Assessment description based on protocol`,\n  'To be provided' AS `Supplier Assessment`,\n  'To be provided' AS `Supplier Unit`,\n  'To be provided' AS `Supplier Method Name`,\n  unitcoll AS UNITCOLL,\n  lbspec AS LBSPEC,\n  p_ai.topic_code AS TOPICCD,\n  lbstresc AS `Valid LBSTRESC values for categorical results`,\n  lbmethod AS LBMETHOD,\n  CASE \n    WHEN $neodash_lab_specification_version = 'Lab Spec IG v0.1(v8.0)' THEN 'To be completed'\n  END AS  LBSPCCND,\n  'To be completed' AS LBANMETH,\nCASE \n    WHEN $neodash_lab_specification_version = 'Lab Spec IG v0.1(v8.0)' THEN p_ai.adam_param_code\n    END AS ADaMCD",
          "width": 24,
          "height": 23,
          "x": 0,
          "y": 4,
          "type": "table",
          "selection": {},
          "settings": {
            "allowDownload": true,
            "compact": true,
            "styleRules": [
              {
                "field": "Supplier Assessment",
                "condition": "=",
                "value": "To be provided",
                "customization": "cell color",
                "customizationValue": "lightblue"
              },
              {
                "field": "Supplier Unit",
                "condition": "=",
                "value": "To be provided",
                "customization": "cell color",
                "customizationValue": "lightblue"
              },
              {
                "field": "Supplier Method Name",
                "condition": "=",
                "value": "To be provided",
                "customization": "cell color",
                "customizationValue": "lightblue"
              },
              {
                "field": "UNITCOLL",
                "condition": "!=",
                "value": "$",
                "customization": "cell color",
                "customizationValue": "lightgreen"
              },
              {
                "field": "LBSPEC",
                "condition": "!=",
                "value": "$",
                "customization": "cell color",
                "customizationValue": "lightgreen"
              },
              {
                "field": "TOPICCD",
                "condition": "!=",
                "value": "$",
                "customization": "cell color",
                "customizationValue": "lightgreen"
              },
              {
                "field": "Valid LBSTRESC values for categorical results",
                "condition": "!=",
                "value": "$",
                "customization": "cell color",
                "customizationValue": "lightgreen"
              },
              {
                "field": "LBMETHOD",
                "condition": "!=",
                "value": "$",
                "customization": "cell color",
                "customizationValue": "lightgreen"
              },
              {
                "field": "LBSPCCND",
                "condition": "!=",
                "value": "$",
                "customization": "cell color",
                "customizationValue": "lightgreen"
              },
              {
                "field": "LBANMETH",
                "condition": "!=",
                "value": "$",
                "customization": "cell color",
                "customizationValue": "lightgreen"
              },
              {
                "field": "ADaMCD",
                "condition": "!=",
                "value": "$",
                "customization": "cell color",
                "customizationValue": "lightgreen"
              }
            ],
            "wrapContent": true,
            "columnWidths": "[2.5,1,1,1,2,1,1,1,1,1,1,1]",
            "refreshButtonEnabled": true,
            "actionsRules": [
              {
                "condition": "Click",
                "field": "",
                "value": "",
                "customization": "set variable",
                "customizationValue": ""
              }
            ],
            "transposed": false
          }
        },
        {
          "id": "753906f4-696e-4835-88fa-cc70e4a05a71",
          "title": "Study selected",
          "query": "MATCH (n0:StudyRoot {uid:$neodash_studyroot_uid})-[r1:LATEST]->(n1:StudyValue)\nWITH CASE WHEN (n1.study_number is not null and n1.study_acronym is not null) THEN (n1.study_id_prefix + '-'+n1.study_number+ \" [\" + n1.study_acronym + \"]\") ELSE CASE WHEN n1.study_acronym is null THEN (n1.study_id_prefix + '-'+n1.study_number) ELSE (n1.study_id_prefix + \" [\" + n1.study_acronym + \"]\") END END AS Value\nRETURN DISTINCT Value\n\n",
          "width": 6,
          "height": 2,
          "x": 18,
          "y": 0,
          "type": "value",
          "selection": {},
          "settings": {
            "fontSize": 22,
            "monospace": true,
            "textAlign": "center",
            "verticalAlign": "middle"
          },
          "schema": []
        },
        {
          "id": "36126d69-af32-409a-a97b-c2a267d75e3f",
          "title": "Spec Version selected",
          "query": "return $neodash_lab_specification_version",
          "width": 6,
          "height": 2,
          "x": 18,
          "y": 2,
          "type": "value",
          "selection": {},
          "settings": {
            "fontSize": 20,
            "monospace": true,
            "textAlign": "center",
            "verticalAlign": "middle"
          },
          "schema": []
        }
      ]
    },
    {
      "title": "LAB Range",
      "reports": [
        {
          "id": "8cbc331f-1b7e-421d-aed3-f7c0fb1a26c5",
          "title": "Data file specification for reference ranges\t\t\t\t\t",
          "query": "Data file specification for reference ranges\n\nLABRANGE data description: Reference ranges for assessments in LAB data file that are required for analyses in Biostatistics. \n\n[A LABRANGE file should only be requested from the supplier in rare cases where reference range information in LAB data and COSMOS is not sufficient for Biostatistics needs. It is an ILProg decision whether a LABRANGE file should be requested, so please get input from the ILProg during preparation of the data specification.\nNote that the data is not imported into DMW. The LABRANGE file is automatically transferred to the statistical computing environment. The Trial Programmer on the study will need to implement a program to process it (with assistance from the ADaM template maintenance group).]\n\n- All columns listed in the table below should be present in the data file and their order should not be changed. \n\n- The data file header line with the pipe-delimited column headers is shown for your reference below.\n\n- The instructions in 'Mandatory/optional' specify if it is mandatory to populate a column. \n\n- The first LABRANGE data file should be provided at the time of first production load of the LAB.txt file. An updated LABRANGE data file should be provided in case of any changes in reference ranges. A test file is not required.\n\n- The data types specified in the table below are the Oracle database data types that the data can be loaded into. VARCHAR2 stores alphanumeric strings. The maximum length is specified for each column. Data type NUMBER stores numeric data.\"\t\t\t\t\t\n\nData file header line:\t\t\t\t\t\n\nSTUDYID|LBNAM|TOPICCD|SEX|STARTDATE|ENDDATE|AGEMIN|AGEMINU|AGEMAX|AGEMAXU|RANGEMIN|RANGEMAX|UNIT&nbsp;\t\t\t\t\t\n\n\n\n",
          "width": 18,
          "height": 4,
          "x": 0,
          "y": 0,
          "type": "text",
          "selection": {},
          "settings": {},
          "schema": []
        },
        {
          "id": "11aab0b2-cbce-4090-a6e1-03176a2d3126",
          "title": "LAB Range",
          "query": "MATCH\n  (model_root:DataModelIGRoot)-->\n  (model_value:DataModelIGValue)-[:HAS_DATASET]->\n  (dataset_value:DatasetInstance)<--\n  (:Dataset{uid:\"LABRANGE\"})\nWHERE\n  toLower(\n    apoc.text.join(\n      [model_value.name, '(v', model_value.version_number, ')'],\n      \"\"\n    )) =\n  toLower($neodash_lab_specification_version)\nMATCH\n  (dataset_value)-[rel:HAS_DATASET_VARIABLE]->\n  (variable_value:DatasetVariableInstance)<--\n  (variable_root:DatasetVariable)\nWHERE rel.version_number = model_value.version_number\nOPTIONAL MATCH\n  (variable_value)-->\n  (var_class_inst:VariableClassInstance)<--\n  (var_class:VariableClass)-->\n  (sponModVarClasInst:SponsorModelVariableClassInstance)\nWITH\n  variable_root,\n  variable_value,\n  var_class_inst,\n  var_class,\n  sponModVarClasInst,\n  apoc.text.split(rel.ordinal, \"\\.\") AS split_ordinal\nORDER BY toInteger(split_ordinal[0]), toInteger(split_ordinal[1])\nCALL\n  apoc.case(\n    [\n      variable_root.uid = \"STUDYID\",\n      'MATCH (n:StudyRoot {uid:$neodash_studyroot_uid})-[:LATEST]->(s:StudyValue) RETURN s.study_id_prefix + \"-\" + s.study_number AS examples',\n      variable_root.uid = \"VISIT\",\n      'MATCH p=(n:StudyRoot {uid:$neodash_studyroot_uid})-[:LATEST]->(s:StudyValue)-->(visit:StudyVisit)-->(:StudyActivitySchedule)<--(:StudyActivity)-->(:StudyActivitySubGroup)-->(:ActivitySubGroupValue)-->(:ActivityValidGroup)-->(:ActivityGroupValue{name: \"Laboratory Assessments\"}) WITH DISTINCT visit.short_visit_label AS visit_label, visit.visit_number AS visit_number ORDER BY visit_number RETURN collect(visit_label) AS examples'\n    ],\n    'RETURN \"\" AS examples',\n    {neodash_studyroot_uid: $neodash_studyroot_uid}\n  )\n  YIELD value\nWITH\n  variable_root,\n  variable_value,\n  var_class_inst,\n  var_class,\n  sponModVarClasInst,\n  split_ordinal,\n  value,\n  CASE\n    WHEN variable_root.uid = 'LBNAM' THEN $neodash_lab_supplier_name\n    ELSE value.examples\n  END AS Examples\nRETURN DISTINCT\n  split_ordinal AS Position,\n  variable_root.uid AS `Column Header`,\n  variable_value.simple_datatype AS `Data type`,\n  variable_value.length AS `Max Length`,\n  variable_value.label AS `Content Description`,\n  sponModVarClasInst.core AS Mandatory,\n  Examples",
          "width": 24,
          "height": 4,
          "x": 0,
          "y": 4,
          "type": "table",
          "selection": {},
          "settings": {
            "compact": true,
            "allowDownload": true,
            "columnWidths": "[1,1,1,1,6,1,2]",
            "refreshButtonEnabled": true,
            "wrapContent": true
          }
        },
        {
          "id": "34bafd11-6079-466b-a02a-5a6bdeee34af",
          "title": "Study selected",
          "query": "MATCH (n0:StudyRoot {uid:$neodash_studyroot_uid})-[r1:LATEST]->(n1:StudyValue)\nWITH CASE WHEN (n1.study_number is not null and n1.study_acronym is not null) THEN (n1.study_id_prefix + '-'+n1.study_number+ \" [\" + n1.study_acronym + \"]\") ELSE CASE WHEN n1.study_acronym is null THEN (n1.study_id_prefix + '-'+n1.study_number) ELSE (n1.study_id_prefix + \" [\" + n1.study_acronym + \"]\") END END AS Value\nRETURN DISTINCT Value\n\n\n",
          "width": 6,
          "height": 2,
          "x": 18,
          "y": 0,
          "type": "value",
          "selection": {},
          "settings": {
            "fontSize": 22,
            "monospace": true,
            "textAlign": "center",
            "verticalAlign": "middle"
          },
          "schema": []
        },
        {
          "id": "57e176ce-54c6-446b-9ca2-5ff286cb7624",
          "title": "Spec Version selected",
          "query": "return $neodash_lab_specification_version",
          "width": 6,
          "height": 2,
          "x": 18,
          "y": 2,
          "type": "value",
          "selection": {},
          "settings": {
            "fontSize": 20,
            "monospace": true,
            "textAlign": "center",
            "verticalAlign": "middle"
          },
          "schema": []
        }
      ]
    },
    {
      "title": "PK Structure",
      "reports": [
        {
          "id": "f0d5efec-9f39-4fec-9257-d66dd423e8be",
          "title": "Data file specification for pharmacokinetics",
          "query": "PK data description: Concentrations of drugs or metabolites in fluids or tissues as a function of time.\n\n• All columns listed in the table below should be present in the data file and their order should not be changed. \n\n• For columns that are not applicable, the column header should remain, and the content in the column should be set to NULL (i.e. left blank) in each record in the file. \n\n• The data file header line with the pipe-delimited column headers is shown for your reference below.\n\n• The instructions in 'Mandatory/optional' specify if it is mandatory to populate a column. [Exceptions from this can, in rare cases, be agreed with the supplier while preparing the data specification.]\n[Addition of study-specific data file columns to the specification should be discussed in an Implementation Group meeting. If additional data file columns are required, e.g. QNAMs, please add the additional columns as new rows at the end of this table and ensure to add the extra columns to the relevant tables in DMW for the study. If an added column should  be compliant with a codelist, please add the data file column to the content sheet so that relevant codelist submission values can be communicated to the supplier.]\n\n• For codelist-controlled columns, supplier values should be mapped to the corresponding CDISC codelist values or to Novo Nordisk-defined additions to the codelists that are extensible. See the relevant codelist values as well as study-specific file content in the 'PK, content' sheet. \n\n• The data types specified in the table below are the Oracle database data types that the data will be loaded into. VARCHAR2 stores alphanumeric strings. The maximum length is specified for each column. Data type NUMBER stores numeric data.\n\nData file header line:\n\nSTUDYID|DOMAIN|SITE|SUBJID|FSUBJID|VISIT|PCREFID|TOPICCD|SUPTEST|PCORRES|UNITCOLL|LLOQ|ULOQ|PCSTAT|PCREASND&nbsp;|PCNAM|PCSPEC|PCSPCCND|PCMETHOD&nbsp;|PCDTC|PCTPT|SUBEVNUM|COMMENTALL\n",
          "width": 14,
          "height": 4,
          "x": 0,
          "y": 0,
          "type": "text",
          "selection": {},
          "settings": {},
          "schema": []
        },
        {
          "id": "04f2ff5e-a09e-4c67-a780-13b11a825be2",
          "title": "$neodash_lab_spec_dataset, Structure",
          "query": "MATCH\n  (model_root:DataModelIGRoot)-->\n  (model_value:DataModelIGValue)-[:HAS_DATASET]->\n  (dataset_value:DatasetInstance)<--\n  (:Dataset{uid:$neodash_lab_spec_dataset})\nWHERE\n  toLower(\n    apoc.text.join(\n      [model_value.name, '(v', model_value.version_number, ')'],\n      \"\"\n    )) =\n  toLower($neodash_lab_specification_version)\nMATCH\n  (dataset_value)-[rel:HAS_DATASET_VARIABLE]->\n  (variable_value:DatasetVariableInstance)<--\n  (variable_root:DatasetVariable)\nWHERE rel.version_number = model_value.version_number\nOPTIONAL MATCH\n  (variable_value)-->\n  (var_class_inst:VariableClassInstance)<--\n  (var_class:VariableClass)-->\n  (sponModVarClasInst:SponsorModelVariableClassInstance)\nWITH\n  variable_root,\n  variable_value,\n  var_class_inst,\n  var_class,\n  sponModVarClasInst,\n  apoc.text.split(rel.ordinal, \"\\.\") AS split_ordinal\nORDER BY toInteger(split_ordinal[0]), toInteger(split_ordinal[1])\nCALL\n  apoc.case(\n    [\n      variable_root.uid = \"STUDYID\",\n      'MATCH (n:StudyRoot {uid:$neodash_studyroot_uid})-[:LATEST]->(s:StudyValue) RETURN s.study_id_prefix + \"-\" + s.study_number AS examples',\n      variable_root.uid = \"VISIT\",\n      'MATCH p=(n:StudyRoot {uid:$neodash_studyroot_uid})-[:LATEST]->(s:StudyValue)-->(visit:StudyVisit)-->(:StudyActivitySchedule)<--(:StudyActivity)-->(:StudyActivitySubGroup)-->(:ActivitySubGroupValue{name: \"PK Sampling\"})-->(:ActivityValidGroup)-->(:ActivityGroupValue) WITH DISTINCT visit.short_visit_label AS visit_label, visit.visit_number AS visit_number ORDER BY visit_number RETURN collect(visit_label) AS examples'\n    ],\n    'RETURN \"\" AS examples',\n    {neodash_studyroot_uid: $neodash_studyroot_uid}\n  )\n  YIELD value\nWITH\n  variable_root,\n  variable_value,\n  var_class_inst,\n  var_class,\n  sponModVarClasInst,\n  split_ordinal,\n  value,\n  CASE\n    WHEN variable_root.uid = 'PCNAM' THEN COALESCE(\n  NULLIF($neodash_pk_supplier_name, \"\"),\n  NULLIF($neodash_pk_supplier___manual, \"\"))\n    ELSE value.examples\n  END AS Examples\nRETURN DISTINCT\n  split_ordinal AS Position,\n  variable_root.uid AS `Column Header`,\n  variable_value.simple_datatype AS `Data type`,\n  variable_value.length AS `Max Length`,\n  variable_value.label AS `Content Description`,\n  sponModVarClasInst.core AS Mandatory,\n  Examples",
          "width": 24,
          "height": 8,
          "x": 0,
          "y": 4,
          "type": "table",
          "selection": {},
          "settings": {
            "compact": true,
            "allowDownload": true,
            "columnWidths": "[1, 1, 1, 1, 8, 1,2]",
            "wrapContent": true
          }
        },
        {
          "id": "fa6d44b5-6383-4fc8-9205-a403152adc31",
          "title": "Spec Version selected",
          "query": "return $neodash_lab_specification_version",
          "width": 10,
          "height": 2,
          "x": 14,
          "y": 2,
          "type": "value",
          "selection": {},
          "settings": {
            "refreshButtonEnabled": false,
            "fontSize": 20,
            "monospace": true,
            "textAlign": "center",
            "verticalAlign": "middle"
          },
          "schema": []
        },
        {
          "id": "42bc5a48-7515-414f-96b0-169dd440cf47",
          "title": "Study selected",
          "query": "MATCH (n0:StudyRoot {uid:$neodash_studyroot_uid})-[r1:LATEST]->(n1:StudyValue)\nWITH CASE WHEN (n1.study_number is not null and n1.study_acronym is not null) THEN (n1.study_id_prefix + '-'+n1.study_number+ \" [\" + n1.study_acronym + \"]\") ELSE CASE WHEN n1.study_acronym is null THEN (n1.study_id_prefix + '-'+n1.study_number) ELSE (n1.study_id_prefix + \" [\" + n1.study_acronym + \"]\") END END AS Value\nRETURN DISTINCT Value\n",
          "width": 5,
          "height": 2,
          "x": 19,
          "y": 0,
          "type": "value",
          "selection": {},
          "settings": {
            "refreshButtonEnabled": false,
            "fontSize": 22,
            "monospace": true,
            "textAlign": "center",
            "verticalAlign": "middle"
          },
          "schema": []
        },
        {
          "id": "cb0c7ee9-8268-4ffa-b194-819d8ca07444",
          "title": "PK/PD spec dataset",
          "query": "MATCH\n  (model_root:DataModelIGRoot)-->\n  (model_value:DataModelIGValue)-[:HAS_DATASET]->\n  (dataset_value:DatasetInstance)<--\n  (ds:Dataset)\nWHERE\n  toLower(\n    apoc.text.join(\n      [model_value.name, '(v', model_value.version_number, ')'],\n      \"\"\n    )) =\n  toLower($neodash_lab_specification_version)\nWITH ds WHERE NOT ds.uid IN ['LB','LABRANGE','AB','LAB'] \nWITH ds WHERE\ntoLower(toString(ds.`uid`)) CONTAINS toLower($input) \nRETURN DISTINCT ds.`uid` as value,  ds.`uid` as display ORDER BY size(toString(value)) ASC LIMIT 100",
          "width": 5,
          "height": 2,
          "x": 14,
          "y": 0,
          "type": "select",
          "selection": {},
          "settings": {
            "type": "Custom Query",
            "entityType": "Lab Spec Dataset",
            "parameterName": "neodash_lab_spec_dataset"
          },
          "schema": []
        }
      ]
    },
    {
      "title": "PK Content",
      "reports": [
        {
          "id": "7fce37cd-f37c-4107-84ed-d11e74094a01",
          "title": "Expected data content for pharmacokinetics",
          "query": "The table below should be used as a tool to identify the topic codes and codelist values that should be in the PK data file from the supplier. \n\n  - CDP-DMW: Fill in the grey column based on the protocol. [If you are in doubt about which assessments are relevant for the supplier, please reach out to the CTDM in the study.]\n\n  - CDP-DMW and supplier collaboration: Fill in the blue columns based on information from the supplier's system.\n\n  - CDP-DMW and SDTM Programmer collaboration: Using the information from the supplier in the blue columns, fill in the green columns, which should reflect the expected content of the data file. For example, the green 'UNITCOLL' column should be populated with the codelist-compliant synonym of the blue 'Supplier unit'.\n\n  - Supplier: Use the information in the green columns when creating the data file.\n\n[It is important to consider data type (e.g. numeric or categoric), specimen and unit when selecting the topic code. \n\nUNITCOLL in the table below should be populated with a unit that is synonymous with the supplier unit, meaning that the supplier will not do result conversion. Note that the UNITCOLL unit does not have to be the standard unit of the topic code, as long as it is possible to do a conversion from UNITCOLL unit to standard unit in the SDTM Generation Framework. This requires that the standard unit of the topic code is either in the same unit dimension as the UNITCOLL unit or a complex conversion should be available in GCMD for the two units.\n\nWhen populating codelist-controlled columns, look up CDISC or sponsor-defined submission values in StandVIEW. \n\nConsult the Implementation Group Standards Developer for the study if in doubt about topic codes or codelist values.\n\nThe green columns marked with red header text can be deleted if the supplier is not expected to deliver that information, but the empty columns should still be present in the data file.\n\nIf it is impossible for the supplier to provide TOPICCD, the supplier should provide other information, e.g. SUPTEST and study-specific data file columns, so that TOPICCD can be derived with an expression in DMW.\n\nThe assessment examples shown in red text below do not necessarily represent actual data in a study.]",
          "width": 14,
          "height": 4,
          "x": 0,
          "y": 0,
          "type": "text",
          "selection": {},
          "settings": {},
          "schema": []
        },
        {
          "id": "0b78350a-7c9d-4a0d-9738-54a09e6f7668",
          "title": "PK Content",
          "query": "MATCH\n  (:StudyRoot {uid: $neodash_studyroot_uid})-[:LATEST]->\n  (s:StudyValue)-[:HAS_STUDY_VISIT]->\n  (visit:StudyVisit)-[:STUDY_VISIT_HAS_SCHEDULE]->\n  (:StudyActivitySchedule)<-[:STUDY_ACTIVITY_HAS_SCHEDULE]-\n  (s_act:StudyActivity)-[:STUDY_ACTIVITY_HAS_STUDY_ACTIVITY_SUBGROUP]->\n  (:StudyActivitySubGroup)-[:HAS_SELECTED_ACTIVITY_SUBGROUP]->\n  (asgv:ActivitySubGroupValue)-[:HAS_GROUP]->\n  (sg:ActivityValidGroup)-[:IN_GROUP]->\n  (agv:ActivityGroupValue),(s_act)-[:HAS_SELECTED_ACTIVITY]->\n  (p_act:ActivityValue) \n  WITH DISTINCT s, visit, s_act,p_act, CASE when toLower(agv.name) in ['pk sampling','pk parameter'] THEN 'PK' ELSE CASE WHEN toLower(agv.name) in ['pd sampling'] OR (toLower(agv.name)='laboratory assessments' AND toLower(asgv.name)='pharmacodynamics') THEN 'PD' END END AS PharmacologyType\nWITH DISTINCT s, visit, s_act,p_act,PharmacologyType  where PharmacologyType=$neodash_pharmacology_type\nMATCH\n  (s_act)-[:HAS_SELECTED_ACTIVITY]->\n  (p_act:ActivityValue)-[:HAS_GROUPING]->\n  (g:ActivityGrouping)<-[:HAS_ACTIVITY]-\n  (p_ai:ActivityInstanceValue)<-[:HAS_SELECTED_ACTIVITY_INSTANCE]-\n  (:StudyActivityInstance)<-[:HAS_STUDY_ACTIVITY_INSTANCE]-\n  (:StudyValue)-[:HAS_STUDY_VISIT]->\n  (visit:StudyVisit)\nWITH DISTINCT s, visit, p_act, p_ai\nCALL {\n  WITH s, visit, p_act, p_ai\n  OPTIONAL MATCH (p_ai)-[:CONTAINS_ACTIVITY_ITEM]->(p_aitm1:ActivityItem)\n  WITH DISTINCT p_aitm1\n  OPTIONAL MATCH\n    (p_aitm1)-[:HAS_UNIT_DEFINITION]->\n    (:UnitDefinitionRoot)-[:LATEST]->\n    (p_unitdef:UnitDefinitionValue)\n  RETURN collect(DISTINCT p_unitdef.name) AS unitcoll\n}\nCALL {\n  WITH s, visit, p_act, p_ai\n  OPTIONAL MATCH\n    (p_ai)-[:CONTAINS_ACTIVITY_ITEM]->\n    (p_aitm1:ActivityItem)<--\n    (:ActivityItemClassRoot)-[:LATEST]->\n    (:ActivityItemClassValue {name: \"specimen\"})\n  WITH DISTINCT p_aitm1\n  OPTIONAL MATCH\n  (p_aitm1)-[:HAS_CT_TERM]->\n  (:CTTermContext)-[:HAS_SELECTED_TERM]->\n  (:CTTermRoot)<-[:HAS_TERM_ROOT]-(subm_val1:CTCodelistTerm)\n  RETURN subm_val1.submission_value AS lbspec\n}\nCALL {\n  WITH s, visit, p_act, p_ai\n  OPTIONAL MATCH\n    (p_ai)-[:CONTAINS_ACTIVITY_ITEM]->\n    (p_aitm2:ActivityItem)<--\n    (:ActivityItemClassRoot)-[:LATEST]->\n    (:ActivityItemClassValue {name: \"method\"})\n  WITH DISTINCT p_aitm2\n  OPTIONAL MATCH\n    (p_aitm2)-[:HAS_CT_TERM]->\n    (:CTTermContext)-[:HAS_SELECTED_TERM]->\n    (:CTTermRoot)<-[:HAS_TERM_ROOT]-(subm_val2:CTCodelistTerm)\n  RETURN subm_val2.submission_value AS lbmethod\n}\nCALL {\n  WITH s, visit, p_act, p_ai\n  OPTIONAL MATCH\n    (p_ai)-[:CONTAINS_ACTIVITY_ITEM]->\n    (p_aitm3:ActivityItem)<--\n    (:ActivityItemClassRoot)-[:LATEST]->\n    (:ActivityItemClassValue {name: \"original_result\"})\n  WITH DISTINCT p_aitm3\n  OPTIONAL MATCH\n    (p_aitm3)-[:HAS_CT_TERM]->\n    (:CTTermContext)-[:HAS_SELECTED_TERM]->\n    (:CTTermRoot)<-[:HAS_TERM_ROOT]-(subm_val3:CTCodelistTerm)\n  RETURN collect(DISTINCT subm_val3.submission_value) AS lbstresc\n}\nWITH\n  p_act,\n  unitcoll,\n  lbstresc,\n  p_ai,\n  CASE\n    WHEN size(lbmethod) > 0 THEN lbmethod\n    ELSE 'To be provided'\n  END AS lbmethod,\n  CASE\n    WHEN size(lbspec) > 0 THEN lbspec\n    ELSE 'To be provided'\n  END AS lbspec\n  RETURN DISTINCT p_act.name AS `Assessment description based on protocol`,\n  'To be provided' AS `Supplier Assessment`,\n  'To be provided' AS `Supplier Unit`,\n  'To be provided' AS `Supplier Method Name`,\n  unitcoll AS UNITCOLL,\n  lbspec AS PCSPEC,\n  p_ai.topic_code AS TOPICCD,\n  lbmethod AS PCMETHOD",
          "width": 24,
          "height": 16,
          "x": 0,
          "y": 4,
          "type": "table",
          "selection": {},
          "settings": {
            "allowDownload": true,
            "compact": true,
            "wrapContent": true,
            "columnWidths": "[2.5,1,1,1,2,1,1,1,1,1,1,1]",
            "refreshButtonEnabled": true,
            "styleRules": [
              {
                "field": "Supplier Assessment",
                "condition": "=",
                "value": "To be provided",
                "customization": "cell color",
                "customizationValue": "lightblue"
              },
              {
                "field": "Supplier Unit",
                "condition": "=",
                "value": "To be provided",
                "customization": "cell color",
                "customizationValue": "lightblue"
              },
              {
                "field": "Supplier Method Name",
                "condition": "=",
                "value": "To be provided",
                "customization": "cell color",
                "customizationValue": "lightblue"
              },
              {
                "field": "UNITCOLL",
                "condition": "!=",
                "value": "$",
                "customization": "cell color",
                "customizationValue": "lightgreen"
              },
              {
                "field": "PCSPEC",
                "condition": "!=",
                "value": "$",
                "customization": "cell color",
                "customizationValue": "lightgreen"
              },
              {
                "field": "TOPICCD",
                "condition": "!=",
                "value": "$",
                "customization": "cell color",
                "customizationValue": "lightgreen"
              },
              {
                "field": "PCMETHOD",
                "condition": "!=",
                "value": "$",
                "customization": "cell color",
                "customizationValue": "lightgreen"
              }
            ]
          }
        },
        {
          "id": "795795fa-94da-484b-ac22-fd6cbdddb15a",
          "title": "Study selected",
          "query": "MATCH (n0:StudyRoot {uid:$neodash_studyroot_uid})-[r1:LATEST]->(n1:StudyValue)\nWITH CASE WHEN (n1.study_number is not null and n1.study_acronym is not null) THEN (n1.study_id_prefix + '-'+n1.study_number+ \" [\" + n1.study_acronym + \"]\") ELSE CASE WHEN n1.study_acronym is null THEN (n1.study_id_prefix + '-'+n1.study_number) ELSE (n1.study_id_prefix + \" [\" + n1.study_acronym + \"]\") END END AS Value\nRETURN DISTINCT Value\n\n\n\n",
          "width": 5,
          "height": 2,
          "x": 19,
          "y": 0,
          "type": "value",
          "selection": {},
          "settings": {
            "fontSize": 22,
            "monospace": true,
            "textAlign": "center",
            "verticalAlign": "middle"
          },
          "schema": []
        },
        {
          "id": "acfc3825-d42f-43cd-b028-58711433cb7e",
          "title": "Spec Version selected",
          "query": "return $neodash_lab_specification_version",
          "width": 5,
          "height": 2,
          "x": 19,
          "y": 2,
          "type": "value",
          "selection": {},
          "settings": {
            "fontSize": 20,
            "monospace": true,
            "textAlign": "center",
            "verticalAlign": "middle"
          },
          "schema": []
        },
        {
          "id": "e957163e-2fc1-4936-bbd2-5ef6c0f5a932",
          "title": "Pharmacology Type",
          "query": "MATCH\n  (:StudyRoot {uid: $neodash_studyroot_uid})-[:LATEST]->\n  (s:StudyValue)-[:HAS_STUDY_VISIT]->\n  (visit:StudyVisit)-[:STUDY_VISIT_HAS_SCHEDULE]->\n  (:StudyActivitySchedule)<-[:STUDY_ACTIVITY_HAS_SCHEDULE]-\n  (s_act:StudyActivity)-[:STUDY_ACTIVITY_HAS_STUDY_ACTIVITY_SUBGROUP]->\n  (:StudyActivitySubGroup)-[:HAS_SELECTED_ACTIVITY_SUBGROUP]->\n  (asgv:ActivitySubGroupValue)-[:HAS_GROUP]->\n  (sg:ActivityValidGroup)-[:IN_GROUP]->\n  (agv:ActivityGroupValue),(s_act)-[:HAS_SELECTED_ACTIVITY]->\n  (p_act:ActivityValue) \n  WITH DISTINCT agv, asgv, CASE when toLower(agv.name) in ['pk sampling','pk parameter'] THEN 'PK' ELSE CASE WHEN toLower(agv.name) in ['pd sampling'] OR (toLower(agv.name)='laboratory assessments' AND toLower(asgv.name)='pharmacodynamics') THEN 'PD' END END AS `Pharmacology Type`\nWITH `Pharmacology Type` where `Pharmacology Type` is not null\nreturn DISTINCT `Pharmacology Type` order by `Pharmacology Type` DESC ",
          "width": 5,
          "height": 4,
          "x": 14,
          "y": 0,
          "type": "select",
          "selection": {},
          "settings": {
            "type": "Custom Query",
            "entityType": "Pharmacology Type",
            "parameterName": "neodash_pharmacology_type",
            "autoSelectFirstValue": true
          },
          "schema": []
        }
      ]
    },
    {
      "title": "AB Structure",
      "reports": [
        {
          "id": "04efec61-5af7-42cc-af96-7494de4a810f",
          "title": "Data file specification for antibody findings",
          "query": "AB data description: Assessments of antibody presence or antibody titre.\n\n• All columns listed in the table below should be present in the data file and their order should not be changed. \n\n• For columns that are not applicable, the column header should remain, and the content in the column should be set to NULL (i.e. left blank) in each record in the file. \n\n• The data file header line with the pipe-delimited column headers is shown for your reference below.\n\n• The instructions in 'Mandatory/optional' specify if it is mandatory to populate a column. [Exceptions from this can, in rare cases, be agreed with the supplier while preparing the data specification.]\n[Addition of study-specific data file columns to the specification should be discussed in an Implementation Group meeting. If additional data file columns are required, e.g. QNAMs, please add the additional columns as new rows at the end of this table and ensure to add the extra columns to the relevant tables in DMW for the study. If an added column should  be compliant with a codelist, please add the data file column to the content sheet so that relevant codelist submission values can be communicated to the supplier.]\n\n• For codelist-controlled columns, supplier values should be mapped to the corresponding CDISC codelist values or to Novo Nordisk-defined additions to the codelists that are extensible. See the relevant codelist values as well as study-specific file content in the 'AB, content' sheet. \n\n• The data types specified in the table below are the Oracle database data types that the data will be loaded into. VARCHAR2 stores alphanumeric strings. The maximum length is specified for each column. Data type NUMBER stores numeric data.\n\nData file header line:\n\nSTUDYID|DOMAIN|SITE|SUBJID|FSUBJID|VISIT|LBREFID|TOPICCD|SUPTEST|LBORRES|UNITCOLL|LBSTAT|LBREASND|LBNAM|LBSPEC|LBSPCCND|LBDTC|SUBEVNUM|COMMENTALL\n",
          "width": 18,
          "height": 4,
          "x": 0,
          "y": 0,
          "type": "text",
          "selection": {},
          "settings": {},
          "schema": []
        },
        {
          "id": "26f889db-e4fb-4fcb-8a3d-5f19d74e0f8a",
          "title": "",
          "query": "MATCH (model_root:DataModelIGRoot)-->(model_value:DataModelIGValue)\n-[:HAS_DATASET]->(dataset_value:DatasetInstance)<--(:Dataset {uid: \"AB\"}) WHERE toLower(apoc.text.join([model_value.name,'(v',model_value.version_number,')'],\"\"))=toLower($neodash_lab_specification_version)\nMATCH (dataset_value)-[rel:HAS_DATASET_VARIABLE]->(variable_value:DatasetVariableInstance)<--(variable_root:DatasetVariable)\nWHERE rel.version_number=model_value.version_number\nOPTIONAL MATCH (variable_value)-->(var_class_inst:VariableClassInstance)<--(var_class:VariableClass)-->(sponModVarClasInst:SponsorModelVariableClassInstance)\nWITH variable_root, variable_value, var_class_inst, var_class, sponModVarClasInst, apoc.text.split(rel.ordinal, \"\\.\") AS split_ordinal ORDER BY toInteger(split_ordinal[0]), toInteger(split_ordinal[1])\nCALL apoc.case([\n    variable_root.uid = \"STUDYID\", 'MATCH (n:StudyRoot {uid:$neodash_studyroot_uid})-[:LATEST]->(s:StudyValue) RETURN s.study_id_prefix + \"-\" + s.study_number AS examples',\n    variable_root.uid = \"VISIT\", 'MATCH p=(n:StudyRoot {uid:$neodash_studyroot_uid})-[:LATEST]->(s:StudyValue)-->(visit:StudyVisit)-->(:StudyActivitySchedule)<--(:StudyActivity)-->(:StudyActivitySubGroup)-->(:ActivitySubGroupValue{name: \"Antibodies\"})-->(:ActivityValidGroup)-->(:ActivityGroupValue{name: \"Laboratory Assessments\"}) WITH DISTINCT visit.short_visit_label AS visit_label, visit.visit_number AS visit_number ORDER BY visit_number RETURN collect(visit_label) AS examples'\n], 'RETURN \"\" AS examples', {neodash_studyroot_uid:$neodash_studyroot_uid})\nYIELD value\nWITH variable_root, variable_value, var_class_inst, var_class, sponModVarClasInst, split_ordinal, value, CASE WHEN variable_root.uid = 'ABNAM' THEN COALESCE(\n  NULLIF($neodash_ab_supplier_name, \"\"),\n  NULLIF($neodash_ab_supplier___manual, \"\")) ELSE value.examples END AS Examples\nRETURN DISTINCT split_ordinal AS Position, variable_root.uid AS `Column Header`, variable_value.simple_datatype AS `Data type`, variable_value.length AS `Max Length`, variable_value.label AS `Content Description`, sponModVarClasInst.core AS Mandatory, Examples\n\n\n",
          "width": 24,
          "height": 7,
          "x": 0,
          "y": 4,
          "type": "table",
          "selection": {},
          "settings": {
            "compact": true,
            "allowDownload": true,
            "columnWidths": "[1,1,1,1,6,1,2]",
            "wrapContent": true
          }
        },
        {
          "id": "f705b6c4-20c8-43a3-a6a7-f579ff0fc2c8",
          "title": "Study selected",
          "query": "MATCH (n0:StudyRoot {uid:$neodash_studyroot_uid})-[r1:LATEST]->(n1:StudyValue)\nWITH CASE WHEN (n1.study_number is not null and n1.study_acronym is not null) THEN (n1.study_id_prefix + '-'+n1.study_number+ \" [\" + n1.study_acronym + \"]\") ELSE CASE WHEN n1.study_acronym is null THEN (n1.study_id_prefix + '-'+n1.study_number) ELSE (n1.study_id_prefix + \" [\" + n1.study_acronym + \"]\") END END AS Value\nRETURN DISTINCT Value\n\n\n",
          "width": 6,
          "height": 2,
          "x": 18,
          "y": 0,
          "type": "value",
          "selection": {},
          "settings": {
            "fontSize": 22,
            "textAlign": "center",
            "verticalAlign": "middle",
            "format": "auto"
          },
          "schema": []
        },
        {
          "id": "0528a296-2dd9-4a16-8ec1-fc29d892c94f",
          "title": "Spec Version selected",
          "query": "return $neodash_lab_specification_version\n\n",
          "width": 6,
          "height": 2,
          "x": 18,
          "y": 2,
          "type": "value",
          "selection": {},
          "settings": {
            "fontSize": 20,
            "textAlign": "center",
            "verticalAlign": "middle"
          },
          "schema": []
        }
      ]
    },
    {
      "title": "AB Content",
      "reports": [
        {
          "id": "bc6a7d88-5022-43de-ac47-c4fedad90a57",
          "title": "Data file specification for antibody findings",
          "query": "AB data description: Assessments of antibody presence or antibody titre.\n\n• All columns listed in the table below should be present in the data file and their order should not be changed.\n\n• For columns that are not applicable, the column header should remain, and the content in the column should be set to NULL (i.e. left blank) in each record in the file. \n\n• The data file header line with the pipe-delimited column headers is shown for your reference below.\n\n• The instructions in 'Mandatory/optional' specify if it is mandatory to populate a column. [Exceptions from this can, in rare cases, be agreed with the supplier while preparing the data specification.]\n[Addition of study-specific data file columns to the specification should be discussed in an Implementation Group meeting. If additional data file columns are required, e.g. QNAMs, please add the additional columns as new rows at the end of this table and ensure to add the extra columns to the relevant tables in DMW for the study. If an added column should  be compliant with a codelist, please add the data file column to the content sheet so that relevant codelist submission values can be communicated to the supplier.]\n\n• For codelist-controlled columns, supplier values should be mapped to the corresponding CDISC codelist values or to Novo Nordisk-defined additions to the codelists that are extensible. See the relevant codelist values as well as study-specific file content in the 'AB, content' sheet. \n\n• The data types specified in the table below are the Oracle database data types that the data will be loaded into. VARCHAR2 stores alphanumeric strings. The maximum length is specified for each column. Data type NUMBER stores numeric data.\n\n**Data file header line:**\n\nSTUDYID|DOMAIN|SITE|SUBJID|FSUBJID|VISIT|LBREFID|TOPICCD|SUPTEST|LBORRES|UNITCOLL|LBSTAT|LBREASND|LBNAM|LBSPEC|LBSPCCND|LBDTC|SUBEVNUM|COMMENTALL",
          "width": 18,
          "height": 4,
          "x": 0,
          "y": 0,
          "type": "text",
          "selection": {},
          "settings": {},
          "schema": []
        },
        {
          "id": "0ace6fbb-eca6-4fca-b9c5-2415c8296d44",
          "title": "AB Content",
          "query": "MATCH\n  (:StudyRoot {uid: $neodash_studyroot_uid})-[:LATEST]->\n  (s:StudyValue)-[:HAS_STUDY_VISIT]->\n  (visit:StudyVisit)-[:STUDY_VISIT_HAS_SCHEDULE]->\n  (:StudyActivitySchedule)<-[:STUDY_ACTIVITY_HAS_SCHEDULE]-\n  (s_act:StudyActivity)-[:STUDY_ACTIVITY_HAS_STUDY_ACTIVITY_SUBGROUP]->\n  (:StudyActivitySubGroup)-[:HAS_SELECTED_ACTIVITY_SUBGROUP]->\n  (asgv:ActivitySubGroupValue)-[:HAS_GROUP]->\n  (sg:ActivityValidGroup)-[:IN_GROUP]->\n  (:ActivityGroupValue),(s_act)-[:HAS_SELECTED_ACTIVITY]->\n  (p_act:ActivityValue)\nWHERE asgv.name = \"Antibodies\"\nWITH DISTINCT s, visit, s_act,p_act\nMATCH\n  (s_act)-[:HAS_SELECTED_ACTIVITY]->\n  (p_act:ActivityValue)-[:HAS_GROUPING]->\n  (g:ActivityGrouping)<-[:HAS_ACTIVITY]-\n  (p_ai:ActivityInstanceValue)<-[:HAS_SELECTED_ACTIVITY_INSTANCE]-\n  (:StudyActivityInstance)<-[:HAS_STUDY_ACTIVITY_INSTANCE]-\n  (:StudyValue)-[:HAS_STUDY_VISIT]->\n  (visit:StudyVisit)\nWITH DISTINCT s, visit, p_act, p_ai\nCALL {\n  WITH s, visit, p_act, p_ai\n  OPTIONAL MATCH (p_ai)-[:CONTAINS_ACTIVITY_ITEM]->(p_aitm1:ActivityItem)\n  WITH DISTINCT p_aitm1\n  OPTIONAL MATCH\n    (p_aitm1)-[:HAS_UNIT_DEFINITION]->\n    (:UnitDefinitionRoot)-[:LATEST]->\n    (p_unitdef:UnitDefinitionValue)\n  RETURN collect(DISTINCT p_unitdef.name) AS unitcoll\n}\nCALL {\n  WITH s, visit, p_act, p_ai\n  OPTIONAL MATCH\n    (p_ai)-[:CONTAINS_ACTIVITY_ITEM]->\n    (p_aitm1:ActivityItem)<--\n    (:ActivityItemClassRoot)-[:LATEST]->\n    (:ActivityItemClassValue {name: \"specimen\"})\n  WITH DISTINCT p_aitm1\n  OPTIONAL MATCH\n  (p_aitm1)-[:HAS_CT_TERM]->\n  (:CTTermContext)-[:HAS_SELECTED_TERM]->\n  (:CTTermRoot)<-[:HAS_TERM_ROOT]-(subm_val1:CTCodelistTerm)\n  RETURN subm_val1.submission_value AS lbspec\n}\nCALL {\n  WITH s, visit, p_act, p_ai\n  OPTIONAL MATCH\n    (p_ai)-[:CONTAINS_ACTIVITY_ITEM]->\n    (p_aitm2:ActivityItem)<--\n    (:ActivityItemClassRoot)-[:LATEST]->\n    (:ActivityItemClassValue {name: \"method\"})\n  WITH DISTINCT p_aitm2\n  OPTIONAL MATCH\n    (p_aitm2)-[:HAS_CT_TERM]->\n    (:CTTermContext)-[:HAS_SELECTED_TERM]->\n    (:CTTermRoot)<-[:HAS_TERM_ROOT]-(subm_val2:CTCodelistTerm)\n  RETURN subm_val2.submission_value AS lbmethod\n}\nCALL {\n  WITH s, visit, p_act, p_ai\n  OPTIONAL MATCH\n    (p_ai)-[:CONTAINS_ACTIVITY_ITEM]->\n    (p_aitm3:ActivityItem)<--\n    (:ActivityItemClassRoot)-[:LATEST]->\n    (:ActivityItemClassValue {name: \"original_result\"})\n  WITH DISTINCT p_aitm3\n  OPTIONAL MATCH\n    (p_aitm3)-[:HAS_CT_TERM]->\n    (:CTTermContext)-[:HAS_SELECTED_TERM]->\n    (:CTTermRoot)<-[:HAS_TERM_ROOT]-(subm_val3:CTCodelistTerm)\n  RETURN collect(DISTINCT subm_val3.submission_value) AS lbstresc\n}\nWITH\n  p_act,\n  unitcoll,\n  p_ai,\nlbstresc,\n  CASE\n    WHEN size(lbmethod) > 0 THEN lbmethod\n    ELSE 'To be provided'\n  END AS lbmethod,\n  CASE\n    WHEN size(lbspec) > 0 THEN lbspec\n    ELSE 'To be provided'\n  END AS lbspec\n  RETURN DISTINCT p_act.name AS `Assessment description based on protocol`,\n  'To be provided' AS `Supplier Assessment`,\n  'To be provided' AS `Supplier Unit`,\n  'To be provided' AS `Supplier Method Name`,\n  unitcoll AS UNITCOLL,\n  lbspec AS SPEC,\n  p_ai.topic_code AS TOPICCD,\n  lbstresc AS  `If result is categorical, specify valid ORRES values from categorical response list`,\n  lbmethod AS METHOD",
          "width": 24,
          "height": 4,
          "x": 0,
          "y": 4,
          "type": "table",
          "selection": {},
          "settings": {
            "styleRules": [
              {
                "field": "Supplier Assessment",
                "condition": "=",
                "value": "To be provided",
                "customization": "cell color",
                "customizationValue": "lightblue"
              },
              {
                "field": "Supplier Unit",
                "condition": "=",
                "value": "To be provided",
                "customization": "cell color",
                "customizationValue": "lightblue"
              },
              {
                "field": "Supplier Method Name",
                "condition": "=",
                "value": "To be provided",
                "customization": "cell color",
                "customizationValue": "lightblue"
              },
              {
                "field": "UNITCOLL",
                "condition": "!=",
                "value": "$",
                "customization": "cell color",
                "customizationValue": "lightgreen"
              },
              {
                "field": "SPEC",
                "condition": "!=",
                "value": "$",
                "customization": "cell color",
                "customizationValue": "lightgreen"
              },
              {
                "field": "TOPICCD",
                "condition": "!=",
                "value": "$",
                "customization": "cell color",
                "customizationValue": "lightgreen"
              },
              {
                "field": "METHOD",
                "condition": "!=",
                "value": "$",
                "customization": "cell color",
                "customizationValue": "lightgreen"
              },
              {
                "field": "If result is categorical, specify valid ORRES values from categorical response list",
                "condition": "!=",
                "value": "$",
                "customization": "cell color",
                "customizationValue": "lightgreen"
              }
            ],
            "refreshButtonEnabled": true,
            "fullscreenEnabled": true,
            "compact": true,
            "wrapContent": true,
            "columnWidths": "[2.5,1,1,1,2,1,1,1,1,1,1,1]",
            "allowDownload": true
          }
        },
        {
          "id": "2f3cd013-56e4-438f-abc7-923b2b2b6696",
          "title": "Study selected",
          "query": "MATCH (n0:StudyRoot {uid:$neodash_studyroot_uid})-[r1:LATEST]->(n1:StudyValue)\nWITH CASE WHEN (n1.study_number is not null and n1.study_acronym is not null) THEN (n1.study_id_prefix + '-'+n1.study_number+ \" [\" + n1.study_acronym + \"]\") ELSE CASE WHEN n1.study_acronym is null THEN (n1.study_id_prefix + '-'+n1.study_number) ELSE (n1.study_id_prefix + \" [\" + n1.study_acronym + \"]\") END END AS Value\nRETURN DISTINCT Value\n\n\n\n\n",
          "width": 6,
          "height": 2,
          "x": 18,
          "y": 0,
          "type": "value",
          "selection": {},
          "settings": {
            "fontSize": 22,
            "textAlign": "center",
            "verticalAlign": "middle"
          },
          "schema": []
        },
        {
          "id": "b70e7e51-c1c9-4870-a67a-cff73f00a8eb",
          "title": "Spec Version selected",
          "query": "return $neodash_lab_specification_version\n\n",
          "width": 6,
          "height": 2,
          "x": 18,
          "y": 2,
          "type": "value",
          "selection": {},
          "settings": {
            "fontSize": 20,
            "textAlign": "center",
            "verticalAlign": "middle"
          },
          "schema": []
        }
      ]
    }
  ],
  "parameters": {},
  "extensions": {
    "active": true,
    "activeReducers": [],
    "advanced-charts": {
      "active": true
    },
    "actions": {
      "active": true
    },
    "styling": {
      "active": true
    },
    "forms": {
      "active": true
    }
  },
  "uuid": "6b288611-7f89-482c-a850-b34b19cf6ebb"
}