"basic_std","table","column","activity_item_class","label","order","type","length","displayformat","xmldatatype","xmlcodelist","core","origin","role","term","algorithm","qualifiers","comment","IGcomment","map_var_flag","fixed_mapping","include_in_raw","nn_internal","incl_cre_domain","xmlcodelistvalues"
"Y","Associated__Persons-APRELSUB","STUDYID","","Study Identifier","10","C","40","","text","","Req","Protocol","Identifier","","","UPPERCASE","","Unique identifier for a study.","*","","Y","","Y",""
"Y","Associated__Persons-APRELSUB","DOMAIN","","Domain Abbreviation","20","C","8","","text","","Req","Assigned","Identifier","","","UPPERCASE","","Four-character abbreviation for the domain, Associated__Persons-APRELSUB--.","*","","Y","","Y",""
"Y","Associated__Persons-APRELSUB","APID","","Associated Persons Identifier","30","C","60","","text","","Req","","Identifier","","","UPPERCASE","","Identifier for a single associated person, a group of associated persons, or a pool of associated persons. If APID identifies a pool, POOLDEF records must exist for each associated person.","Y","","Y","","Y",""
"Y","Associated__Persons-APRELSUB","__SEQ","","Sequence Number","40","N","8","","integer","","Req","Assigned","Identifier","","","","","Sequence number to ensure uniqueness of records within a domain for associated persons. Unique within APID within the domain.","*","","Y","","Y",""
"Y","Associated__Persons-APRELSUB","RSUBJID","","Related Subject","50","C","60","","text","","Exp","","Identifier","","","UPPERCASE","","Identifier for a related study subject or pool of study subjects. The subject(s) may be human or animal. RSUBJID will be populated with the USUBJID of the related subject or the POOLID of the related pool. RSUBJID will be null for data about associated persons who are related to the study but not to any of the study subjects.","Y","","Y","","Y",""
"Y","Associated__Persons-APRELSUB","RDEVID","","Related Device","60","C","40","","text","","Perm","","RecordQualifier","","","UPPERCASE","","Identifier for a related device. RDEVID will be populated with the SPDEVID of the related device.","Y","","Y","","Y",""
"Y","Associated__Persons-APRELSUB","SREL","","Subject, Device, or Study Relationship","70","C","40","","text","RELSUB","Req","","RecordQualifier","(RELSUB)","","UPPERCASE","","If RSUBJID is populated, describes the relationship of the associated person(s) identified in APID to the subject or pool identified in RSUBJID. If RDEVID is populated, describes the relationship of the associated person(s) identified in APID to the device identified in RDEVID. If RSUBJID and RDEVID are null, SREL describes the relationship of the associated person(s) identified in APID to the study identified in STUDYID.","Y","","Y","","Y",""
"","Associated__Persons-APRELSUB","__SPID","","Sponsor-Defined Identifier","80","C","40","","text","","Perm","","Identifier","","","UPPERCASE","Sponsor-defined identifier. Example: pre-printed line identifier on a Concomitant Medications page.","Sponsor-defined identifier. Example: pre-printed line identifier on a Concomitant Medications page.","*","","Y","","Y",""
"Y","Associated__Persons-APRELSUB","STUDYID","","Study Identifier","10","C","40","","text","","Req","Protocol","Identifier","","","UPPERCASE","","Unique identifier for a study.","","","","","",""
"Y","Associated__Persons-APRELSUB","APID","","Associated Persons Identifier","20","C","60","","text","","Req","","Identifier","","","UPPERCASE","","Identifier for a single associated person, a group of associated persons, or a pool of associated persons. If APID identifies a pool, POOLDEF records must exist for each associated person.","","","","","",""
"Y","Associated__Persons-APRELSUB","RSUBJID","","Related Subject or Pool Identifier","30","C","60","","text","","Exp","","Identifier","","","UPPERCASE","","Identifier for a related subject or pool of subjects. RSUBJID may be populated with the USUBJID of the related subject or the POOLID of the related pool. RSUBJID will be null for data about associated persons who are related to the study but not to any study subjects.","","","","","",""
"Y","Associated__Persons-APRELSUB","RDEVID","","Related Device Identifier","40","C","40","","text","","Perm","","RecordQualifier","","","UPPERCASE","","Identifier for a related device. RDEVID will be populated with the SPDEVID of the related device.","","","","","",""
"Y","Associated__Persons-APRELSUB","SREL","","Subject, Device, or Study Relationship","50","C","40","","text","RELSUB","Req","","RecordQualifier","(RELSUB)","","UPPERCASE","","If RSUBJID is populated, describes the relationship of the associated person(s) identified in APID to the subject or pool identified in RSUBJID. If RDEVID is populated, describes the relationship of the associated person(s) identified in APID to the subject or pool identified in RDEVID. If RSUBJID and RDEVID are null, SREL describes the relationship of the associated person(s) identified in APID to the study identified in STUDYID.","","","","","",""
"Y","Special-Purpose-CO","RDOMAIN","","Related Domain Abbreviation","10","C","8","","text","","Perm","Assigned","RecordQualifier","*","","UPPERCASE","Domain abbreviations for domains which are related to at least one other domain. Derived from parent record","Two-character abbreviation for the domain of the parent record(s). Null for comments collected on a general comments or additional information CRF page.","","","","","",""
"Y","Special-Purpose-CO","IDVAR","","Identifying Variable","20","C","8","","text","","Perm","Assigned","RecordQualifier","*","","UPPERCASE","","Identifying variable in the parent dataset that identifies the record(s) to which the comment applies. Examples AESEQ or CMGRPID. Used only when individual comments are related to domain records. Null for comments collected on separate CRFs.","Y","","Y","","",""
"Y","Special-Purpose-CO","IDVARVAL","","Identifying Variable Value","30","C","40","","text","","Perm","Assigned","RecordQualifier","","","UPPERCASE","","Value of identifying variable of the parent record(s). Used only when individual comments are related to domain records. Null for comments collected on separate CRFs.","Y","","Y","","",""
"Y","Special-Purpose-CO","COREF","comment_reference","Comment Reference","40","C","200","","text","","Perm","Assigned","RecordQualifier","","","UPPERCASE","For comments originating from the sponsor source system, the COREF value starts with EDC_FORM_COMMENT","Sponsor-defined reference associated with the comment. May be the CRF page number (e.g. 650), or a module name (e.g. DEMOG), or a combination of information that identifies the reference (e.g. 650-VITALS-VISIT 2).","","","","","",""
"Y","Special-Purpose-CO","COVAL","comment","Comment","50","C","200","","text","","Req","eDT","Topic","","","MIXEDCASE","","The text of the comment. Text over 200 characters can be added to additional columns COVAL1-COVALn. See Assumption 3.","","","","","",""
"","Special-Purpose-CO","COVAL1","","Comment 1","60","C","200","","text","","Perm","eDT","Topic","","","MIXEDCASE","","","Y","","Y","","",""
"","Special-Purpose-CO","COVAL2","","Comment 2","70","C","200","","text","","Perm","eDT","Topic","","","MIXEDCASE","","","Y","","Y","","",""
"","Special-Purpose-CO","COVAL3","","Comment 3","80","C","200","","text","","Perm","eDT","Topic","","","MIXEDCASE","","","Y","","Y","","",""
"","Special-Purpose-CO","COVAL4","","Comment 4","90","C","200","","text","","Perm","eDT","Topic","","","MIXEDCASE","","","Y","","Y","","",""
"","Special-Purpose-CO","COVAL5","","Comment 5","100","C","200","","text","","Perm","eDT","Topic","","","MIXEDCASE","","","Y","","Y","","",""
"","Special-Purpose-CO","COVAL6","","Comment 6","110","C","200","","text","","Perm","eDT","Topic","","","MIXEDCASE","","","Y","","Y","","",""
"","Special-Purpose-CO","COVAL7","","Comment 7","120","C","200","","text","","Perm","eDT","Topic","","","MIXEDCASE","","","Y","","Y","","",""
"","Special-Purpose-CO","COVAL8","","Comment 8","130","C","200","","text","","Perm","eDT","Topic","","","MIXEDCASE","","","Y","","Y","","",""
"","Special-Purpose-CO","COVAL9","","Comment 9","140","C","200","","text","","Perm","eDT","Topic","","","MIXEDCASE","","","Y","","Y","","",""
"Y","Study__Reference-DI","DIPARMCD","","Device Identifier Element Short Name","10","C","8","","text","","Req","Assigned","Topic","*","","UPPERCASE","","Short name of the identifier characteristic of the device. Examples: SERIAL, MODEL. A record with DIPARMCD = TYPE should be included (see below)","","","","","",""
"Y","Study__Reference-DI","DIPARM","","Device Identifier Element Name","20","C","80","","text","","Req","Assigned","SynonymQualifier","*","","UPPERCASE","","Name of the identifier characteristic of the device. Examples: Serial Number, Model. A record with DIPARM = Type should be included (see below)","","","","","",""
"Y","Study__Reference-DI","DIVAL","","Device Identifier Element Value","30","C","200","","text","","Req","","ResultQualifier","*","","UPPERCASE","","Value for the parameter. Value for the parameter. When DIPARM = Type, DIVAL should be a value in the GMDN dictionary (see below)","","","","","",""
"Y","Special-Purpose-DM","SUBJID","","Subject Identifier for the Study","10","C","40","","text","","Req","CRF","Topic","","","UPPERCASE","","Subject identifier, which must be unique within the study. Often the ID of the subject as recorded on a CRF.","","","","","",""
"Y","Special-Purpose-DM","RFXSTDTC","","Date/Time of First Study Treatment","20","C","64","","datetime","","Exp","Derived","RecordQualifier","ISO 8601","!!!","UPPERCASE DATETIME","Set as date of first dose","First date of exposure to any protocol-specified treatment or therapy, equal to the earliest value of EXSTDTC.","","","","","",""
"Y","Special-Purpose-DM","RFXENDTC","","Date/Time of Last Study Treatment","30","C","64","","datetime","","Exp","Derived","RecordQualifier","ISO 8601","!!!","UPPERCASE DATETIME","Set as date of last dose","Last date of exposure to any protocol-specified treatment or therapy, equal to the latest value of EXENDTC (or the latest value of EXSTDTC if EXENDTC was not collected or is missing).","","","","","",""
"Y","Special-Purpose-DM","RFICDTC","","Date/Time of Informed Consent","40","C","64","","datetime","","Exp","Derived","RecordQualifier","ISO 8601","!!!","UPPERCASE DATETIME","If DS record exists with DSTERM=INFORMED CONSENT OBTAINED then RFICDTC=DSSTDTC","Date/time of informed consent in ISO 8601 character format. This will be the same as the date of informed consent in the Disposition domain, if that protocol milestone is documented. Would be null only in studies not collecting the date of informed consent.","","","","","",""
"Y","Special-Purpose-DM","RFPENDTC","","Date/Time of End of Participation","50","C","64","","datetime","","Exp","Derived","RecordQualifier","ISO 8601","!!!","UPPERCASE DATETIME","Calculated as the maximum of last visit date, date of last dose, discontinuation date, last adverse event start date and date of screening failure","Date/time when subject ended participation or follow-up in a trial, as defined in the protocol, in ISO 8601 character format. Should correspond to the last known date of contact. Examples include completion date, withdrawal date, last follow-up, date recorded for lost to follow up, or death date.","","","","","",""
"Y","Special-Purpose-DM","DTHDTC","","Date/Time of Death","60","C","64","","datetime","","Exp","Derived","RecordQualifier","ISO 8601","!!!","UPPERCASE DATETIME","If AE record exists with AEOUT=FATAL then DTHDTC=AEENDTC","Date/time of death for any subject who died, in ISO 8601 format. Should represent the date/time that is captured in the clinical-trial database.","","","","","Y",""
"Y","Special-Purpose-DM","DTHFL","","Subject Death Flag","70","C","2","","text","NY","Exp","Derived","RecordQualifier","(NY)","!!!","UPPERCASE","If AE record exists with AEOUT=FATAL then DTHFL=Y","Indicates the subject died. Should be Y or null. Should be populated even when the death date is unknown.","","","","","Y","Y"
"Y","Special-Purpose-DM","SITEID","","Study Site Identifier","80","C","40","","text","","Req","Assigned","RecordQualifier","","","UPPERCASE","","Unique identifier for a site within a study.","","","","","Y",""
"Y","Special-Purpose-DM","INVID","","Investigator Identifier","90","C","40","","text","","Perm","Assigned","RecordQualifier","","","UPPERCASE","","An identifier to describe the Investigator for the study. May be used in addition to SITEID. Not needed if SITEID is equivalent to INVID.","","","","","Y",""
"Y","Special-Purpose-DM","INVNAM","","Investigator Name","100","C","40","","text","","Perm","Assigned","SynonymQualifier","","","UPPERCASE","","Name of the investigator for a site.","","","","","Y",""
"Y","Special-Purpose-DM","BRTHDTC","date_of_birth","Date/Time of Birth","110","C","64","","datetime","","Perm","CRF","RecordQualifier","ISO 8601","","UPPERCASE DATETIME","","Date/time of birth of the subject.","","","","","Y",""
"Y","Special-Purpose-DM","AGE","age","Age","120","N","8","8.1","float","","Exp","Derived","RecordQualifier","","!!!","","Age at start of trial","Age expressed in AGEU. May be derived from RFSTDTC and BRTHDTC, but BRTHDTC may not be available in all cases (due to subject privacy concerns).","","","","","Y",""
"Y","Special-Purpose-DM","AGEU","age_unit","Age Units","130","C","10","","text","AGEU","Exp","Assigned","VariableQualifier","(AGEU)","","UPPERCASE","","Units associated with AGE.","","","","","Y",""
"Y","Special-Purpose-DM","SEX","sex","Sex","140","C","2","","text","SEX","Req","Assigned","RecordQualifier","(SEX)","","UPPERCASE","","Sex of the subject.","Y","","Y","","Y",""
"Y","Special-Purpose-DM","RACE","race","Race","150","C","80","","text","RACE","Exp","","RecordQualifier","(RACE)","","UPPERCASE","","Race of the subject. Sponsors should refer to ""Collection of Race and Ethnicity Data in Clinical Trials"" (FDA, September 2005) for guidance regarding the collection of race (http://www.fda.gov/RegulatoryInformation/Guidances/ucm126340.htm) See Assumption below regarding RACE.","","","","","Y",""
"Y","Special-Purpose-DM","ETHNIC","ethnicity","Ethnicity","160","C","40","","text","ETHNIC","Perm","CRF","RecordQualifier","(ETHNIC)","","UPPERCASE","","The ethnicity of the subject. Sponsors should refer to ""Collection of Race and Ethnicity Data in Clinical Trials"" (FDA, September 2005) for guidance regarding the collection of ethnicity (http://www.fda.gov/RegulatoryInformation/Guidances/ucm126340.htm).","","","","","Y",""
"Y","Special-Purpose-DM","ARMCD","","Planned Arm Code","170","C","20","","text","ARMCD","Req","Assigned","RecordQualifier","*","","UPPERCASE","","ARMCD is limited to 20 characters and does not have special character restrictions. The maximum length of ARMCD is longer than for other ""short"" variables to accommodate the kind of values that are likely to be needed for crossover trials. For example, if ARMCD values for a seven-period crossover were constructed using two- character abbreviations for each treatment and separating hyphens, the length of ARMCD values would be 20.","","","","","",""
"Y","Special-Purpose-DM","ARM","","Description of Planned Arm","180","C","40","","text","ARM","Req","Protocol","SynonymQualifier","*","","UPPERCASE","","Name of the Arm to which the subject was assigned.","","","","","",""
"Y","Special-Purpose-DM","ACTARMCD","","Actual Arm Code","190","C","40","","text","ACTARMCD","Req","Assigned","RecordQualifier","*","","UPPERCASE","","Code of actual Arm. When an Arm is not planned (not in Trial Arms), ACTARMCD will be UNPLAN. Randomized subjects who were not treated will be given a value of NOTTRT. Values should be ""SCRNFAIL"" for screen failures and ""NOTASSGN"" for subjects not assigned to treatment. Restricted to values in Trial Arms in all other cases. ACTARMCD is limited to 20 characters and does not have special character restrictions. The maximum length of ACTARMCD is longer than for other short variables to accommodate the kind of values that are likely to be needed for crossover trials.","","","","","",""
"Y","Special-Purpose-DM","ACTARM","","Description of Actual Arm","200","C","40","","text","ACTARM","Req","Protocol","SynonymQualifier","*","","UPPERCASE","","Description of actual Arm. When an Arm is not planned (not in Trial Arms), ACTARM will be ""Unplanned Treatment"". Randomized subjects who were not treated will be given a value of ""Not Treated"". Values should be ""Screen Failure"" for screen failures and ""Not Assigned"" for subjects not assigned to treatment. Restricted to values in Trial Arms in all other cases.","","","","","",""
"Y","Special-Purpose-DM","COUNTRY","","Country","210","C","3","","text","COUNTRY","Req","Assigned","RecordQualifier","(COUNTRY) ISO 3166","","UPPERCASE","","Country of the investigational site in which the subject participated in the trial.","","","","","Y",""
"","DV_NSV","__EPRELI","","Epi/Pandemic Related Indicator","10","C","2","","text","NY","Perm","CRF","RecordQualifier","(NY)","","UPPERCASE","","Non-standard Variable from Guidance for Ongoing Studies Disrupted by COVID-19 Pandemic Version 1.0","","","","","","Y"
"","DV_NSV","__REAS","","Reason for Deviation","20","C","200","","text","DVCODES","Perm","CRF","RecordQualifier","(DVCODES)","","UPPERCASE","","Non-standard Variable from Guidance for Ongoing Studies Disrupted by COVID-19 Pandemic Version 1.0","","","","","",""
"","EG","EGBEATNO","","ECG Beat Number","10","N","8","","integer","","Perm","","VariableQualifier","","","","","A sequence number that identifies the beat within an ECG.","Y","","Y","","",""
"Y","Events","__TERM","term","Reported Term","10","C","200","","text","","Req","CRF","Topic","*","","UPPERCASE","Topic variable for an event observation, which is the verbatim or pre-specified name of the event.","Topic variable for an event observation, which is the verbatim or pre-specified name of the event.","Y","","Y","","Y",""
"Y","Events","__MODIFY","","Modified Reported Term","20","C","200","","text","","Perm","Assigned","SynonymQualifier","","","UPPERCASE","If the value for --TERM is modified for coding purposes, then the modified text is placed here.","If the value for --TERM is modified for coding purposes, then the modified text is placed here.","Y","","Y","","",""
"Y","Events","__LLT","","Lowest Level Term","30","C","200","","text","","Exp","Assigned","VariableQualifier","MedDRA","","MIXEDCASE","MedDRA Lowest Level Term.","MedDRA Lowest Level Term.","","","","","",""
"Y","Events","__LLTCD","","Lowest Level Term Code","40","N","8","","integer","","Exp","Assigned","VariableQualifier","MedDRA","","","MedDRA Lowest Level Term code.","MedDRA Lowest Level Term code.","Y","","Y","","",""
"Y","Events","__DECOD","","Dictionary-Derived Term","50","C","200","","text","","Perm","Assigned","SynonymQualifier","*","","MIXEDCASE","Dictionary or sponsor-defined derived text description of the topic variable, --TERM, or the modified topic variable (--MODIFY), if applicable. Equivalent to the Preferred Term (PT in MedDRA).","Dictionary or sponsor-defined derived text description of the topic variable, --TERM, or the modified topic variable (-- MODIFY), if applicable. Equivalent to the Preferred Term (PT in MedDRA).","Y","","Y","","",""
"Y","Events","__PTCD","","Preferred Term Code","60","N","8","","integer","","Exp","Assigned","VariableQualifier","MedDRA","","","MedDRA Preferred Term code.","MedDRA Preferred Term code.","Y","","Y","","",""
"Y","Events","__HLT","","High Level Term","70","C","200","","text","","Exp","Assigned","VariableQualifier","MedDRA","","MIXEDCASE","MedDRA High Level Term from the primary path.","MedDRA High Level Term from the primary path.","","","","","",""
"Y","Events","__HLTCD","","High Level Term Code","80","N","8","","integer","","Exp","Assigned","VariableQualifier","MedDRA","","","MedDRA High Level Term code from the primary path.","MedDRA High Level Term code from the primary path.","Y","","Y","","",""
"Y","Events","__HLGT","","High Level Group Term","90","C","200","","text","","Exp","Assigned","VariableQualifier","MedDRA","","MIXEDCASE","MedDRA High Level Group Term from the primary path.","MedDRA High Level Group Term from the primary path.","","","","","",""
"Y","Events","__HLGTCD","","High Level Group Term Code","100","N","8","","integer","","Exp","Assigned","VariableQualifier","MedDRA","","","MedDRA High Level Group Term code from the primary path.","MedDRA High Level Group Term code from the primary path.","Y","","Y","","",""
"Y","Events","__CAT","category","Category","110","C","60","","text","","Perm","Assigned","GroupingQualifier","*","","UPPERCASE","Used to define a category of topic-variable values.","Used to define a category of topic-variable values.","Y","src.cat","Y","","Y",""
"Y","Events","__SCAT","subcategory","Subcategory","120","C","60","","text","","Perm","Assigned","GroupingQualifier","*","","UPPERCASE","Used to define a further categorization of --CAT values.","Used to define a further categorization of --CAT values.","Y","src.sub_cat","Y","","Y",""
"Y","Events","__PRESP","prespecified","Pre-specified","130","C","2","","text","NY","Perm","","VariableQualifier","(NY)","","UPPERCASE","Used to indicate whether the event described by --TERM was pre-specified on a CRF. Value is Y for pre-specified events, null for spontaneously reported events.","Used to indicate whether the event described by --TERM was pre-specified on a CRF. Value is Y for pre-specified events, null for spontaneously reported events.","","","","","",""
"Y","Events","__OCCUR","occurrence","Occurrence","140","C","2","","text","NY","Perm","","RecordQualifier","(NY)","","UPPERCASE","Used to record whether a pre-specified event occurred when information about the occurrence of a specific event is solicited.","Used to record whether a pre-specified event occurred when information about the occurrence of a specific event is solicited.","","","","","",""
"Y","Events","__STAT","completion_status","Completion Status","150","C","40","","text","ND","Perm","","RecordQualifier","(ND)","","UPPERCASE","Used to indicate when a question about the occurrence of a pre-specified event was not answered. Should be null or have a value of NOT DONE.","Used to indicate when a question about the occurrence of a pre- specified event was not answered. Should be null or have a value of NOT DONE.","Y","","Y","","",""
"Y","Events","__REASND","reason_not_done","Reason Not Done","160","C","200","","text","","Perm","","RecordQualifier","","","UPPERCASE","Reason not done. Used in conjunction with --STAT when its value is NOT DONE.","Reason not done. Used in conjunction with --STAT when its value is NOT DONE.","Y","","Y","","",""
"Y","Events","__BODSYS","","Body System or Organ Class","170","C","200","","text","","Perm","Assigned","RecordQualifier","MedDRA","","MIXEDCASE","Body system or system organ class assigned for analysis from a standard hierarchy (e.g. MedDRA) associated with an event. Example: GASTROINTESTINAL DISORDERS.","Body system or system organ class assigned for analysis from a standard hierarchy (e.g. MedDRA) associated with an event. Example: GASTROINTESTINAL DISORDERS.","Y","","Y","","",""
"Y","Events","__BDSYCD","","Body System or Organ Class Code","180","N","8","","integer","","Exp","Assigned","VariableQualifier","MedDRA","","","MedDRA System Organ Class code corresponding to --BODSYS assigned for analysis.","MedDRA System Organ Class code corresponding to -- BODSYS assigned for analysis.","Y","","Y","","",""
"Y","Events","__SOC","","Primary System Organ Class","190","C","200","","text","","Exp","Assigned","VariableQualifier","MedDRA","","MIXEDCASE","MedDRA primary System Organ Class associated with the event.","MedDRA primary System Organ Class associated with the event.","","","","","",""
"Y","Events","__SOCCD","","Primary System Organ Class Code","200","N","8","","integer","","Exp","Assigned","VariableQualifier","MedDRA","","","MedDRA primary System Organ Class code.","MedDRA primary System Organ Class code.","Y","","Y","","",""
"Y","Events","__LOC","location","Location of Event","210","C","100","","text","LOC","Perm","","RecordQualifier","(LOC)","","UPPERCASE","Describes anatomical location relevant for the event. Example: ARM for skin rash.","Describes anatomical location relevant for the event. Example: ARM for skin rash.","Y","","Y","","",""
"Y","Events","__LAT","laterality","Laterality","220","C","40","","text","LAT","Perm","","VariableQualifier","(LAT)","","UPPERCASE","","Qualifier for anatomical location further detailing laterality. Examples: RIGHT, LEFT, BILATERAL","Y","","Y","","",""
"Y","Events","__DIR","directionality","Directionality","230","C","40","","text","DIR","Perm","","VariableQualifier","(DIR)","","UPPERCASE","","Qualifier for anatomical location further detailing directionality. Examples: ANTERIOR, LOWER, PROXIMAL","","","","","",""
"Y","Events","__PORTOT","portion","Portion or Totality","240","C","40","","text","PORTOT","Perm","","VariableQualifier","(PORTOT)","","UPPERCASE","","Qualifier for anatomical location further detailing the distribution, which means arrangement of, apportioning of. Examples: ENTIRE, SINGLE, SEGMENT, MANY.","","","","","",""
"Y","Events","__PARTY","","Accountable Party","250","C","80","","text","","Req","","RecordQualifier","*","","UPPERCASE","","Party accountable for the transferable object (e.g. device, specimen) as a result of the activity performed in the associated --TERM variable. The party could be an individual (e.g., subject), an organization (e.g., sponsor), or a location that is a proxy for an individual or organization (e.g., site). It is usually a somewhat general term that is further identified in the -- PRTYID variable.","","","","","",""
"Y","Events","__PRTYID","","Identification of Accountable Party","260","C","40","","text","","Exp","Assigned","VariableQualifier","","","UPPERCASE","","Identification of the specific party accountable for the transferable object (e.g. device, specimen) after the action in -- TERM is taken. Used in conjunction with --PARTY.","","","","","",""
"Y","Events","__SEV","severity","Severity/Intensity","270","C","80","","text","","Perm","CRF","RecordQualifier","*","","UPPERCASE","The severity or intensity of the event. Examples: MILD, MODERATE, SEVERE.","The severity or intensity of the event. Examples: MILD, MODERATE, SEVERE.","Y","","Y","","",""
"Y","Events","__SER","serious","Serious Event","280","C","2","","text","NY","Exp","CRF","RecordQualifier","(NY)","","UPPERCASE","Is this is a serious event? Valid values are ""Y"" and ""N"".","Is this is a serious event? Valid values are ""Y"" and ""N"".","Y","","Y","","",""
"Y","Events","__ACN","action_taken","Action Taken with Study Treatment","290","C","40","","text","ACN","Exp","CRF","RecordQualifier","(ACN)","","UPPERCASE","Describes changes made to the study treatment as a result of the event. Examples: DOSE INCREASED, DOSE NOT CHANGED.","Describes changes made to the study treatment as a result of the event. Examples: DOSE INCREASED, DOSE NOT CHANGED.","Y","","Y","","",""
"Y","Events","__ACNOTH","","Other Action Taken","300","C","200","","text","","Perm","CRF","RecordQualifier","","","UPPERCASE","Describes other actions taken as a result of the event that are unrelated to dose adjustments of study treatment.","Describes other actions taken as a result of the event that are unrelated to dose adjustments of study treatment.","Y","","Y","","",""
"Y","Events","__ACNDEV","","Action Taken with Device","310","C","80","","text","","Perm","","RecordQualifier","*","","UPPERCASE","","Action taken with respect to a device in a study, which may or may not be the device under study","","","","","",""
"Y","Events","__REL","causality","Causality","320","C","80","","text","","Exp","CRF","RecordQualifier","*","","UPPERCASE","Records the investigator's opinion as to the causality of the event to the treatment. ICH E2A and E2B examples include NOT RELATED, UNLIKELY RELATED, POSSIBLY RELATED, RELATED.","Records the investigator's opinion as to the causality of the event to the treatment. ICH E2A and E2B examples include NOT RELATED, UNLIKELY RELATED, POSSIBLY RELATED, RELATED.","Y","","Y","","",""
"Y","Events","__RELNST","","Relationship to Non-Study Treatment","330","C","40","","text","","Perm","CRF","RecordQualifier","","","UPPERCASE","An opinion as to whether the event may have been due to a treatment other than study drug. Example: ""MORE LIKELY RELATED TO ASPIRIN USE.""","An opinion as to whether the event may have been due to a treatment other than study drug. Example: ""MORE LIKELY RELATED TO ASPIRIN USE.""","","","","","",""
"Y","Events","__PATT","","Pattern of Event","340","C","80","","text","","Perm","","RecordQualifier","*","","UPPERCASE","Used to indicate the pattern of the event over time. Examples: INTERMITTENT, CONTINUOUS, SINGLE EVENT.","Used to indicate the pattern of the event over time. Examples: INTERMITTENT, CONTINUOUS, SINGLE EVENT.","","","","","",""
"Y","Events","__OUT","outcome","Outcome of Event","350","C","40","","text","OUT","Perm","CRF","RecordQualifier","(OUT)","","UPPERCASE","Description of the outcome of an event. Examples: RECOVERED/RESOLVED, FATAL.","Description of the outcome of an event. Examples: RECOVERED/RESOLVED, FATAL.","","","","","",""
"Y","Events","__SCAN","","Involves Cancer","360","C","2","","text","NY","Perm","CRF","RecordQualifier","(NY)","","UPPERCASE","Was the event associated with the development of cancer? Valid values are ""Y"" and ""N"".","Was the event associated with the development of cancer? Valid values are ""Y"" and ""N"".","","","","","",""
"Y","Events","__SCONG","congenital","Congenital Anomaly or Birth Defect","370","C","2","","text","NY","Perm","CRF","RecordQualifier","(NY)","","UPPERCASE","Was the event associated with congenital anomaly or birth defect? Valid values are ""Y"" and ""N"".","Was the event associated with congenital anomaly or birth defect? Valid values are ""Y"" and ""N"".","","","","","",""
"Y","Events","__SDISAB","disability","Persist or Signif Disability/Incapacity","380","C","2","","text","NY","Perm","CRF","RecordQualifier","(NY)","","UPPERCASE","Did the event result in persistent or significant disability/incapacity? Valid values are ""Y"" and ""N"".","Did the event result in persistent or significant disability/incapacity? Valid values are ""Y"" and ""N"".","","","","","",""
"Y","Events","__SDTH","death","Results in Death","390","C","2","","text","NY","Perm","CRF","RecordQualifier","(NY)","","UPPERCASE","Did the event result in death? Valid values are ""Y"" and ""N"".","Did the event result in death? Valid values are ""Y"" and ""N"".","Y","","Y","","",""
"Y","Events","__SHOSP","hospitalisation","Requires or Prolongs Hospitalization","400","C","2","","text","NY","Perm","CRF","RecordQualifier","(NY)","","UPPERCASE","Did the event require or prolong hospitalization? Valid values are ""Y"" and ""N"".","Did the event require or prolong hospitalization? Valid values are ""Y"" and ""N"".","Y","","Y","","",""
"Y","Events","__SLIFE","life_threatening","Is Life Threatening","410","C","2","","text","NY","Perm","CRF","RecordQualifier","(NY)","","UPPERCASE","Was the event life threatening? Valid values are ""Y"" and ""N"".","Was the event life threatening? Valid values are ""Y"" and ""N"".","Y","","Y","","",""
"Y","Events","__SOD","","Occurred with Overdose","420","C","2","","text","NY","Perm","CRF","RecordQualifier","(NY)","","UPPERCASE","Did the event occur with an overdose? Valid values are ""Y"" and ""N"".","Did the event occur with an overdose? Valid values are ""Y"" and ""N"".","","","","","",""
"Y","Events","__SMIE","","Other Medically Important Serious Event","430","C","2","","text","NY","Perm","CRF","RecordQualifier","(NY)","","UPPERCASE","Do additional categories for seriousness apply? Valid values are ""Y"" and ""N"".","Do additional categories for seriousness apply? Valid values are ""Y"" and ""N"".","Y","","Y","","",""
"Y","Events","__CONTRT","","Concomitant or Additional Trtmnt Given","440","C","2","","text","NY","Perm","","RecordQualifier","(NY)","","UPPERCASE","Was another treatment given because of the occurrence of the event? Valid values are ""Y"" and ""N"".","Was another treatment given because of the occurrence of the event? Valid values are ""Y"" and ""N"".","Y","","Y","","",""
"Y","Events","__TOX","toxicity","Toxicity","450","C","80","","text","","Perm","Assigned","VariableQualifier","*","","UPPERCASE","Description of toxicity quantified by --TOXGR such as NCI CTCAE Short Name. Examples: HYPERCALCEMIA, HYPOCALCEMIA. Sponsor should specify which scale and version is used in the Sponsor Comments column of the Define.xml document.","Description of toxicity quantified by --TOXGR such as NCI CTCAE Short Name. Examples: HYPERCALCEMIA, HYPOCALCEMIA. Sponsor should specify which scale and version is used in the Sponsor Comments column of the Define- XML document.","Y","","Y","","",""
"Y","Events","__TOXGR","toxicity_grade","Toxicity Grade","460","C","80","","text","","Perm","Assigned","RecordQualifier","*","","UPPERCASE","Records toxicity grade using a standard toxicity scale (such as the NCI CTCAE). Sponsor should specify which scale and version is used in the Sponsor Comments column of the Define.xml document.","Records toxicity grade using a standard toxicity scale (such as the NCI CTCAE). Sponsor should specify which scale and version is used in the Sponsor Comments column of the Define- XML document.","Y","","Y","","",""
"Y","Findings","__TESTCD","test_name_code","Short Name of Measurement, Test or Examination","10","C","8","","text","","Req","Assigned","Topic","*","","UPPERCASE","Short character value for --TEST used as a column name when converting a dataset from a vertical format to a horizontal format. The short value can be up to 8 characters. Examples: PLAT, SYSBP, RRMIN, EYEEXAM.","Short character value for --TEST used as a column name when converting a dataset from a vertical format to a horizontal format. The short value can be up to 8 characters. Examples: PLAT, SYSBP, RRMIN, EYEEXAM.","Y","","Y","","Y",""
"","Findings","__REPNUM","","Repetition Number","20","N","8","","integer","","Perm","Assigned","RecordQualifier","","","","","The incidence number of a test that is repeated within a given timeframe for the same test. The level of granularity can vary, e.g., within a time point or within a visit. For example, multiple measurements of blood pressure or multiple analyses of a sample.","Y","","Y","","",""
"Y","Findings","__TEST","test_name_code","Name of Measurement, Test or Examination","30","C","40","","text","","Req","Assigned","SynonymQualifier","*","","MIXEDCASE","Long name For --TESTCD. Examples: Platelet, Systolic Blood Pressure, Summary (Min) RR Duration, Eye Examination.","Long name For --TESTCD. Examples: Platelet, Systolic Blood Pressure, Summary (Min) RR Duration, Eye Examination.","Y","","Y","","Y",""
"Y","Findings","__MODIFY","","Modified Term","40","C","200","","text","","Perm","","SynonymQualifier","","","UPPERCASE","If the value of --ORRES is modified for coding purposes, then the modified text is placed here.","If the value of --ORRES is modified for coding purposes, then the modified text is placed here.","","","","","",""
"Y","Findings","__TSTDTL","test_detail","Measurement, Test or Examination Detail","50","C","200","","text","","Perm","","RecordQualifier","","","UPPERCASE","","Further description of --TESTCD and --TEST. Example: ""The percentage of cells with +1 intensity of staining"" when MITESTCD = TTF1.","","","","","",""
"Y","Findings","__CAT","category","Category","60","C","60","","text","","Perm","Assigned","GroupingQualifier","*","","UPPERCASE","Used to define a category of topic-variable values. Examples: HEMATOLOGY, URINALYSIS, CHEMISTRY, HAMILTON DEPRESSION SCALE, SF36.","Used to define a category of topic-variable values. Examples: HEMATOLOGY, URINALYSIS, CHEMISTRY, HAMILTON DEPRESSION SCALE, SF36, MICRO ARRAY, EGFR MUTATION ANALYSIS","Y","src.cat","Y","","Y",""
"Y","Findings","__SCAT","subcategory","Subcategory","70","C","60","","text","","Perm","Assigned","GroupingQualifier","*","","UPPERCASE","Used to define a further categorization of --CAT values. Example: DIFFERENTIAL.","Used to define a further categorization of --CAT values. Example: DIFFERENTIAL.","Y","src.sub_cat","Y","","Y",""
"Y","Findings","__POS","position","Position of Subject During Observation","80","C","40","","text","POSITION","Perm","","RecordQualifier","(POSITION)","","UPPERCASE","Position of the subject during a measurement or examination. Examples: SUPINE, STANDING, SITTING.","Position of the subject during a measurement or examination. Examples: SUPINE, STANDING, SITTING.","","","","","",""
"Y","Findings","__BODSYS","","Body System or Organ Class","90","C","200","","text","","Perm","","RecordQualifier","MedDRA","","MIXEDCASE","Body System or Organ Class that is involved for a finding from the standard hierarchy for dictionary-coded results. Example: MedDRA SOC.","Body System or Organ Class that is involved for a finding from the standard hierarchy for dictionary-coded results. Example: MedDRA SOC.","","","","","",""
"Y","Findings","__ORRES","original_result","Result or Finding in Original Units","100","C","200","","text","NY","Exp","CRF","ResultQualifier","(NY)","","UPPERCASE","Result of the measurement or finding as originally received or collected. Examples: 120, <1, POS.","Result of the measurement or finding as originally received or collected. Examples: 120, <1, POS.","Y","","Y","","Y",""
"Y","Findings","__ORRESU","original_unit","Original Units","110","C","40","","text","UNIT","Exp","Assigned","VariableQualifier","(UNIT)","","MIXEDCASE","Unit for --ORRES. Examples: IN, LB, kg/L.","Unit for --ORRES. Examples: IN, LB, kg/L.","Y","","Y","","Y",""
"Y","Findings","__ORNRLO","normal_range_lower_limit","Normal Range Lower Limit-Original Units","120","C","40","","text","","Exp","CRF","VariableQualifier","","","UPPERCASE","Lower end of normal range or reference range for results stored in --ORRES.","Lower end of normal range or reference range for results stored in --ORRES.","","","","","",""
"Y","Findings","__ORNRHI","normal_range_upper_limit","Normal Range Upper Limit-Original Units","130","C","40","","text","","Exp","CRF","VariableQualifier","","","UPPERCASE","Upper end of normal range or reference range for results stored in --ORRES.","Upper end of normal range or reference range for results stored in --ORRES.","","","","","",""
"Y","Findings","__STRESC","","Result or Finding in Standard Format","140","C","200","","text","","Exp","Derived","ResultQualifier","","","UPPERCASE","Contains the result value for all findings, copied or derived from --ORRES in a standard format or in standard units. --STRESC should store all results or findings in character format; if results are numeric, they should also be stored in numeric format in --STRESN. For example, if various tests have results ""NONE"", ""NEG"", and ""NEGATIVE"" in --ORRES and these results effectively have the same meaning, they could be represented in standard format in --STRESC as ""NEGATIVE"".","Contains the result value for all findings, copied or derived from --ORRES in a standard format or in standard units. --STRESC should store all results or findings in character format; if results are numeric, they should also be stored in numeric format in -- STRESN. For example, if various tests have results ""NONE"", ""NEG"", and ""NEGATIVE"" in --ORRES and these results effectively have the same meaning, they could be represented in standard format in --STRESC as ""NEGATIVE"".","Y","","Y","","Y",""
"Y","Findings","__STRESN","","Numeric Result/Finding in Standard Units","150","N","8","8.3","float","","Exp","","ResultQualifier","","","","Used for continuous or numeric results or findings in standard format; copied in numeric format from --STRESC. --STRESN should store all numeric test results or findings.","Used for continuous or numeric results or findings in standard format; copied in numeric format from --STRESC. --STRESN should store all numeric test results or findings.","","","","","Y",""
"Y","Findings","__STRESU","standard_unit","Standard Units","160","C","40","","text","UNIT","Exp","Assigned","VariableQualifier","(UNIT)","","MIXEDCASE","Standardized units used for --STRESC and --STRESN. Example: mol/L.","Standardized units used for --STRESC and --STRESN. Example: mol/L.","","","","","Y",""
"Y","Findings","__STNRLO","","Normal Range Lower Limit-Standard Units","170","N","8","8.1","float","","Exp","Assigned","VariableQualifier","","","","Lower end of normal range or reference range for standardized results (e.g., --STRESC, --STRESN) represented in standardized units (--STRESU).","Lower end of normal range or reference range for standardized results (e.g., --STRESC, --STRESN) represented in standardized units (--STRESU).","","","","","",""
"Y","Findings","__STNRHI","","Normal Range Upper Limit-Standard Units","180","N","8","8.1","float","","Exp","Assigned","VariableQualifier","","","","Upper end of normal range or reference range for standardized results (e.g., --STRESC, --STRESN) represented in standardized units (--STRESU).","Upper end of normal range or reference range for standardized results (e.g., --STRESC, --STRESN) represented in standardized units (--STRESU).","","","","","",""
"Y","Findings","__STNRC","","Normal Range for Character Results","190","C","40","","text","","Perm","","VariableQualifier","","","UPPERCASE","Normal range or reference range for results stored in --STRESC that are character in ordinal or categorical scale. Example: Negative to Trace.","Normal range or reference range for results stored in --STRESC that are character in ordinal or categorical scale. Example: Negative to Trace.","","","","","",""
"Y","Findings","__NRIND","normal_range_indicator","Normal/Reference Range Indicator","200","C","20","","text","NRIND","Exp","","VariableQualifier","(NRIND)","","UPPERCASE","Used to indicate the value is outside the normal range or reference range. May be defined by --ORNRLO and --ORNRHI or other objective criteria. Examples: Y, N; HIGH, LOW; NORMAL; ABNORMAL.","Used to indicate the value is outside the normal range or reference range. May be defined by --ORNRLO and --ORNRHI or other objective criteria. Examples: Y, N; HIGH, LOW; NORMAL; ABNORMAL.","","","","","",""
"Y","Findings","__RESCAT","result_category","Result Category","210","C","60","","text","","Perm","","VariableQualifier","*","","UPPERCASE","Used to categorize the result of a finding. Example: MALIGNANT or BENIGN for tumor findings.","Used to categorize the result of a finding. Example: MALIGNANT or BENIGN for tumor findings. RESISTANCE VARIANT for genetic variation.","","","","","",""
"Y","Findings","__STAT","completion_status","Completion Status","220","C","40","","text","ND","Perm","","RecordQualifier","(ND)","","UPPERCASE","Used to indicate that a question was not asked or a test was not done, or a test was attempted but did not generate a result. Should be null or have a value of NOT DONE.","Used to indicate that a question was not asked or a test was not done, or a test was attempted but did not generate a result. Should be null or have a value of NOT DONE.","Y","","Y","","Y",""
"Y","Findings","__REASND","reason_not_done","Reason Not Done","230","C","200","","text","","Perm","","RecordQualifier","","","UPPERCASE","Reason not done. Used in conjunction with --STAT when value is NOT DONE.","Reason not done. Used in conjunction with --STAT when value is NOT DONE.","Y","","Y","","Y",""
"Y","Findings","__XFN","","External File Path","240","C","200","","text","","Perm","CRF","RecordQualifier","","","UPPERCASE","Filename for an external file, such as one for an ECG waveform or a medical image.","Filename for an external file, such as one for an ECG waveform or a medical image.","","","","","",""
"Y","Findings","__NAM","vendor_name","Laboratory/Vendor Name","250","C","40","","text","","Perm","","RecordQualifier","","","UPPERCASE","Name or identifier of the vendor (e.g., laboratory) that provided the test results.","Name or identifier of the vendor (e.g., laboratory) that provided the test results.","","","","","",""
"Y","Findings","__LOINC","loinc","LOINC Code","260","C","200","","text","","Perm","Assigned","SynonymQualifier","*","","UPPERCASE","Logical Observation Identifiers Names and Codes (LOINC) code for the topic variable such as a lab test.","Logical Observation Identifiers Names and Codes (LOINC) code for the topic variable such as a lab test.","","","","","",""
"Y","Findings","__SPEC","specimen","Specimen Material Type","270","C","80","","text","SPECTYPE","Perm","","RecordQualifier","(SPECTYPE)","","UPPERCASE","Defines the type of specimen used for a measurement. Examples: SERUM, PLASMA, URINE.","Defines the type of specimen used for a measurement. Examples: SERUM, PLASMA, URINE, DNA, RNA.","","","","","",""
"Y","Findings","__ANTREG","anatomical_region","Anatomical Region","280","C","40","","text","","Perm","","VariableQualifierof__SPEC","","","UPPERCASE","","Defines the specific anatomical or biological region of a tissue, organ specimen or the region from which the specimen is obtained, as defined in the protocol, such as a section or part of what is described in the --SPEC variable. Examples: CORTEX, MEDULLA, MUCOSA","","","","","",""
"Y","Findings","__SPCCND","specimen_condition","Specimen Condition","290","C","40","","text","SPECCOND","Perm","","RecordQualifier","(SPECCOND)","","UPPERCASE","Defines the condition of the specimen. Example: CLOUDY.","Defines the condition of the specimen. Example: CLOUDY.","","","","","",""
"Y","Findings","__SPCUFL","","Specimen Usability for the Test","300","C","2","","text","NY","Perm","","RecordQualifier","(NY)","","UPPERCASE","Describes the usability of the specimen for the test. The value will be N if the specimen is not usable, and null if the specimen is usable.","Describes the usability of the specimen for the test. The value will be N if the specimen is not usable, and null if the specimen is usable.","","","","","",""
"Y","Findings","__LOC","location","Location Used for the Measurement","310","C","100","","text","LOC","Perm","","RecordQualifier","(LOC)","","UPPERCASE","Anatomical location of the subject relevant to the collection of the measurement. Examples: RECTAL for temperature, ARM for blood pressure.","Anatomical location of the subject relevant to the collection of the measurement. Examples: RECTAL for temperature, ARM for blood pressure.","","","","","",""
"Y","Findings","__LAT","laterality","Laterality","320","C","40","","text","LAT","Perm","","VariableQualifier","(LAT)","","UPPERCASE","Qualifier for anatomical location or specimen further detailing laterality. Examples: RIGHT, LEFT, BILATERAL","Qualifier for anatomical location or specimen further detailing laterality. Examples: RIGHT, LEFT, BILATERAL","Y","","Y","","",""
"Y","Findings","__DIR","directionality","Directionality","330","C","40","","text","DIR","Perm","","VariableQualifier","(DIR)","","UPPERCASE","Qualifier for anatomical location or specimen further detailing directionality. Examples: ANTERIOR, LOWER, PROXIMAL","Qualifier for anatomical location or specimen further detailing directionality. Examples: ANTERIOR, LOWER, PROXIMAL","","","","","",""
"Y","Findings","__PORTOT","portion","Portion or Totality","340","C","40","","text","PORTOT","Perm","","VariableQualifier","(PORTOT)","","UPPERCASE","Qualifier for anatomical location or specimen further detailing the distribution, which means arrangement of, apportioning of. . Examples: ENTIRE, SINGLE, SEGMENT, MANY.","Qualifier for anatomical location or specimen further detailing the distribution, which means arrangement of, apportioning of. . Examples: ENTIRE, SINGLE, SEGMENT, MANY.","","","","","",""
"Y","Findings","__METHOD","method","Method of Test or Examination","350","C","80","","text","METHOD","Perm","","RecordQualifier","(METHOD)","","UPPERCASE","Method of the test or examination. Examples: EIA (Enzyme Immunoassay), ELECTROPHORESIS, DIPSTICK","Method of the test or examination. Examples: EIA (Enzyme Immunoassay), ELECTROPHORESIS, DIPSTICK","","","","","",""
"Y","Findings","__RUNID","","Run ID","360","C","40","","text","","Perm","","RecordQualifier","","","UPPERCASE","","A unique identifier for a particular run of a test on a particular batch of samples.","","","","","",""
"Y","Findings","__ANMETH","analysis_method","Analysis Method","370","C","80","","text","","Perm","","RecordQualifier","*","","UPPERCASE","","Analysis method applied to obtain a summarized result. Analysis method describes the method of secondary processing applied to a complex observation result (e.g. an image or a genetic sequence).","","","","","",""
"Y","Findings","__LEAD","lead_to_collect_measurement","Lead Identified to Collect Measurements","380","C","40","","text","LOC","Perm","","RecordQualifier","(LOC)","","UPPERCASE","Lead or leads identified to capture the measurement for a test from an instrument. Examples: LEAD I, LEAD V2, LEAD CM5.","Lead or leads identified to capture the measurement for a test from an instrument. Examples: LEAD I, LEAD V2, LEAD CM5.","","","","","",""
"Y","Findings","__CSTATE","","Consciousness State","390","C","40","","text","","Perm","","RecordQualifier","","","UPPERCASE","The consciousness state of the subject at the time of measurement. Examples: CONSCIOUS, SEMI-CONSCIOUS, UNCONSCIOUS","The consciousness state of the subject at the time of measurement. Examples: CONSCIOUS, SEMI-CONSCIOUS, UNCONSCIOUS","","","","","",""
"Y","Findings","__BLFL","","Baseline Flag","400","C","2","","text","NY","Exp","Derived","RecordQualifier","(NY)","","UPPERCASE","Indicator used to identify a baseline value. Should be Y or null.","Indicator used to identify a baseline value. Should be Y or null.","","","","","","Y"
"Y","Findings","__FAST","fasting_status","Fasting Status","410","C","2","","text","NY","Perm","","RecordQualifier","(NY)","","UPPERCASE","Indicator used to identify fasting status. Valid values include Y, N, U or null if not relevant.","Indicator used to identify fasting status. Valid values include Y, N, U or null if not relevant.","","","","","",""
"Y","Findings","__DRVFL","","Derived Flag","420","C","2","","text","NY","Perm","Assigned","RecordQualifier","(NY)","","UPPERCASE","Used to indicate a derived record (e.g., a record that represents the average of other records such as a computed baseline). Should be Y or null.","Used to indicate a derived record (e.g., a record that represents the average of other records such as a computed baseline). Should be Y or null.","","","","","","Y"
"Y","Findings","__EVAL","evaluator","Evaluator","430","C","40","","text","EVAL","Perm","","RecordQualifier","(EVAL)","","UPPERCASE","Role of the person who provided the evaluation. Used only for results that are subjective (e.g., assigned by a person or a group). Examples: ADJUDICATION COMMITTEE, INDEPENDENT ASSESSOR, RADIOLOGIST.","Role of the person who provided the evaluation. Used only for results that are subjective (e.g., assigned by a person or a group). Examples: ADJUDICATION COMMITTEE, INDEPENDENT ASSESSOR, RADIOLOGIST.","","","","","Y",""
"Y","Findings","__EVALID","evaluator_id","Evaluator Identifier","440","C","40","","text","MEDEVAL","Perm","Assigned","VariableQualifier","(MEDEVAL)","","UPPERCASE","Used to distinguish multiple evaluators with the same role recorded in --EVAL. Examples: RADIOLOGIST1 or RADIOLOGIST2","Used to distinguish multiple evaluators with the same role recorded in --EVAL. Examples: RADIOLOGIST1 or RADIOLOGIST2","","","","","Y",""
"Y","Findings","__ACPTFL","","Accepted Record Flag","450","C","2","","text","NY","Perm","","RecordQualifier","(NY)","","UPPERCASE","In cases where more than one assessor provides an evaluation of a result or response, this flag identifies the record that is considered, by an independent assessor, to be the accepted evaluation. Expected to be Y or null.","In cases where more than one assessor provides an evaluation of a result or response, this flag identifies the record that is considered, by an independent assessor, to be the accepted evaluation. Expected to be Y or null.","","","","","",""
"Y","Findings","__TOX","","Toxicity","460","C","80","","text","","Perm","Assigned","VariableQualifier","*","","UPPERCASE","Description of toxicity quantified by --TOXGR such as NCI CTCAE Short Name. Examples: HYPERCALCEMIA, HYPOCALCEMIA. Sponsor should specify which scale and version is used in the Sponsor Comments column of the Define.xml document.","Description of toxicity quantified by --TOXGR such as NCI CTCAE Short Name. Examples: HYPERCALCEMIA, HYPOCALCEMIA. Sponsor should specify which scale and version is used in the Sponsor Comments column of the Define- XML document.","","","","","",""
"Y","Findings","__TOXGR","","Toxicity Grade","470","C","80","","text","","Perm","Assigned","RecordQualifier","*","","UPPERCASE","Records toxicity grade using a standard toxicity scale (such as the NCI CTCAE). Sponsor should specify which scale and version is used in the Sponsor Comments column of the Define data definition document. Example: 2.","Records toxicity grade using a standard toxicity scale (such as the NCI CTCAE). Sponsor should specify which scale and version is used in the Sponsor Comments column of the Define data definition document. Example: 2.","","","","","",""
"Y","Findings","__SEV","","Severity","480","C","80","","text","","Perm","","RecordQualifier","*","","UPPERCASE","Describes the severity or intensity of a particular finding. Examples: MILD, MODERATE, SEVERE.","Describes the severity or intensity of a particular finding. Examples: MILD, MODERATE, SEVERE.","","","","","",""
"Y","Findings","__DTHREL","","Relationship to Death","490","C","2","","text","NY","Perm","","RecordQualifier","(NY)","","UPPERCASE","","Describes the relationship of a particular finding to the death of a subject. Examples: Y, N or U.","","","","","",""
"Y","Findings","__LLOQ","","Lower Limit of Quantitation","500","N","8","","integer","","Exp","","VariableQualifier","","","","Indicates the lower limit of quantitation for an assay. Units will be those used for --STRESU.","Indicates the lower limit of quantitation for an assay. Units will be those used for --STRESU.","","","","","",""
"Y","Findings","__ULOQ","","Upper Limit of Quantitation","510","N","8","","integer","","Perm","","VariableQualifier","","","","","Indicates the upper limit of quantitation for an assay. Units will be those used for --STRESU.","","","","","",""
"Y","Findings","__EXCLFL","","Exclude from Statistics","520","C","2","","text","NY","Perm","","RecordQualifier","(NY)","","UPPERCASE","","Indicates whether the values in the result variables for this record should be excluded from summary statistical calculations such as Mean, Standard Deviation, and Count (and others). Expected to be Y or null. --EXCLFL should not be used when - -STAT is NOT DONE. Not to be used with human clinical trials.","","","","","","Y"
"Y","Findings","__REASEX","","Reason for Exclusion from Statistics","530","C","200","","text","","Perm","","RecordQualifier","","","MIXEDCASE","","Reason excluded from statistics. Used in conjunction with -- EXCLFL when its value is Y. Not to be used with human clinical trials","","","","","",""
"Y","Findings","__OBJ","object_of_observation","Object of the Observation","540","C","200","","text","","Req","","RecordQualifier","","","UPPERCASE","Used in domains modeled as Findings About Events or Findings About Interventions. Describes the event or intervention whose property is being measured in --TESTCD/--TEST. Example: an event of vomiting which has findings, where --OBJ = ""VOMIT"" and the volume of VOMIT is being measured where --TESTCD = ""VOLUME"".","Used in domains modeled as Findings About Events or Findings About Interventions. Describes the event or intervention whose property is being measured in --TESTCD/--TEST. Example: an event of vomiting which has findings, where --OBJ = ""VOMIT"" and the volume of VOMIT is being measured where --TESTCD = ""VOLUME"".","","","","","",""
"","FT","__LOBXFL","","Last Observation Before Exposure Flag","10","C","1","","text","NY","Exp","Derived","RecordQualifier","(NY)","","UPPERCASE","","Operationally-derived indicator used to identify the last non-missing value prior to RFXSTDTC. The value should be ""Y"" or null.","","","","","","Y"
"","FT","__REPNUM","","Repetition Number","20","N","8","","integer","","Perm","Assigned","RecordQualifier","","","","","The incidence number of a test that is repeated within a given timeframe for the same test. The level of granularity can vary, e.g., within a time point or within a visit. For example, multiple measurements of blood pressure or multiple analyses of a sample.","Y","","Y","","",""
"Y","General__Observations","STUDYID","study_id","Study Identifier","10","C","40","","text","","Req","Protocol","Identifier","","","UPPERCASE","Unique identifier for a study.","Unique identifier for a study.","*","","Y","","Y",""
"Y","General__Observations","DOMAIN","domain","Domain Abbreviation","20","C","8","","text","","Req","Assigned","Identifier","","","UPPERCASE","Two-character abbreviation for the domain most relevant to the observation. The Domain abbreviation is also used as a prefix for variables to ensure uniqueness when datasets are merged.","Two-character abbreviation for the domain most relevant to the observation. The Domain abbreviation is also used as a prefix for variables to ensure uniqueness when datasets are merged.","*","","Y","","Y",""
"Y","General__Observations","USUBJID","unique_subject_id","Unique Subject Identifier","30","C","60","","text","","Req","Assigned","Identifier","","","UPPERCASE","Concatenation of STUDYID and DM.SUBJID","Identifier used to uniquely identify a subject across all studies for all applications or submissions involving the product.","*","","Y","","Y",""
"Y","General__Observations","POOLID","","Pool Identifier","40","C","40","","text","","Exp","","Identifier","","","UPPERCASE","An identifier used to identify a result from a group of subjects that is not assignable to a specific subject.","An identifier used to identify a result from a group of subjects that is not assignable to a specific subject.","","","","","",""
"Y","General__Observations","SPDEVID","","Sponsor Device Identifier","50","C","40","","text","","Req","","Identifier","","","UPPERCASE","","Sponsor-defined identifier for a device","","","","","Y",""
"Y","General__Observations","__SEQ","","Sequence Number","60","N","8","","integer","","Req","Derived","Identifier","","","","Sequence number to ensure uniqueness of records within a dataset for a subject (or within a parameter, in the case of the Trial Summary domain). May be any valid number (including decimals) and does not have to start at 1.","Sequence number to ensure uniqueness of records within a dataset for a subject (or within a parameter, in the case of the Trial Summary domain). May be any valid number (including decimals) and does not have to start at 1.","*","","Y","","Y",""
"Y","General__Observations","__GRPID","","Group ID","70","C","60","","text","","Perm","","Identifier","","","UPPERCASE","Optional group identifier, used to link together a block of related records within a subject in a domain. Also used to link together a block of related records in the Trial Summary dataset (Section 3.4).","Optional group identifier, used to link together a block of related records within a subject in a domain. Also used to link together a block of related records in the Trial Summary dataset (Section 3.4).","Y","","Y","","Y",""
"","General__Observations","TSVAL","","Parameter Value","80","C","200","","text","","Exp","Protocol","ResultQualifier","*","","MIXEDCASE","","","","","","","",""
"Y","General__Observations","__REFID","","Reference ID","90","C","40","","text","","Perm","CRF","Identifier","","","UPPERCASE","Optional internal or external identifier such as lab specimen ID, or UUID for an ECG waveform or a medical image.","Optional internal or external identifier such as lab specimen ID, or UUID for an ECG waveform or a medical image.","Y","","Y","","Y",""
"Y","General__Observations","__SPID","","Sponsor-Defined Identifier","100","C","40","","text","","Perm","","Identifier","","","UPPERCASE","Sponsor-defined identifier. Example: pre-printed line identifier on a Concomitant Medications page.","Sponsor-defined identifier. Example: pre-printed line identifier on a Concomitant Medications page.","*","","Y","","Y",""
"Y","General__Observations","__LNKID","","Link ID","110","C","40","","text","","Perm","Assigned","Identifier","","","UPPERCASE","Identifier used to link a feature (such as a tumor) initially recorded as a result in one findings domain to assessments of that feature in another findings domain. This may be a one-to-one or a one-to-many relationship. For Example: A single tumor may have multiple measurements/assessment performed at each study visit.","Identifier used to link related records across domains. This may be a one-to- one or a one-to-many relationship. For Example: A single tumor may have multiple measurements/assessments performed at each study visit.","Y","","Y","","",""
"Y","General__Observations","__LNKGRP","","Link Group ID","120","C","40","","text","","Perm","Assigned","Identifier","","","UPPERCASE","A grouping identifier used to identify a group of assessment results in one domain that are evaluated, as a group, and contribute to a (summary) result in another domain. This will usually be a many-to-one relationship. For example: Multiple tumor measurements/assessments will contribute to a single response to therapy determination record.","Identifier used to link related records across domains. This will usually be a many-to-one relationship. For example: Multiple tumor measurements/assessments will contribute to a single response to therapy determination record.","","","","","",""
"","General__Observations","ETCD","","Element Code","130","C","8","","text","","Req","Assigned","Topic","*","","UPPERCASE","","ETCD (the companion to ELEMENT) is limited to 8 characters and does not have special character restrictions. These values should be short for ease of use in programming, but it is not expected that ETCD will need to serve as a variable name.","","","","","",""
"","General__Observations","ELEMENT","","Description of Element","140","C","40","","text","","Req","Protocol","SynonymQualifier","*","","UPPERCASE","","The name of the Element.","","","","","",""
"Y","Interventions","__TRT","treatment","Name of Treatment","10","C","200","","text","","Req","","Topic","*","","UPPERCASE","The topic for the intervention observation, usually the verbatim name of the treatment, drug, medicine, or therapy given during the dosing interval for the observation.","The topic for the intervention observation, usually the verbatim name of the treatment, drug, medicine, or therapy given during the dosing interval for the observation.","Y","","Y","","Y",""
"Y","Interventions","__MODIFY","","Modified Treatment Name","20","C","200","","text","","Perm","","SynonymQualifier","","","UPPERCASE","If the value for --TRT is modified for coding purposes, then the modified text is placed here.","If the value for --TRT is modified for coding purposes, then the modified text is placed here.","Y","","Y","","Y",""
"Y","Interventions","__DECOD","","Standardized Treatment Name","30","C","200","","text","","Perm","Assigned","SynonymQualifier","*","","MIXEDCASE","Standardized or dictionary-derived name of the topic variable, --TRT, or the modified topic variable (--MODIFY), if applicable. Equivalent to the generic drug name in WHO Drug, or a term in SNOMED, ICD9, or other published or sponsor-defined dictionaries.","Standardized or dictionary-derived name of the topic variable, -- TRT, or the modified topic variable (--MODIFY), if applicable. Equivalent to the generic drug name in WHO Drug, or a term in SNOMED, ICD9, or other published or sponsor-defined dictionaries.","Y","","Y","","Y",""
"Y","Interventions","__MOOD","mood","Mood","40","C","80","","text","","Perm","","RecordQualifier","*","","UPPERCASE","","Mode or condition of the record (e.g., SCHEDULED, PERFORMED).","Y","","Y","","Y",""
"Y","Interventions","__CAT","category","Category","50","C","60","","text","","Perm","Assigned","GroupingQualifier","*","","UPPERCASE","Used to define a category of topic-variable values.","Used to define a category of topic-variable values.","Y","src.cat","Y","","Y",""
"Y","Interventions","__SCAT","subcategory","Subcategory","60","C","60","","text","","Perm","Assigned","GroupingQualifier","*","","UPPERCASE","Used to define a further categorization of --CAT values.","Used to define a further categorization of --CAT values.","Y","src.sub_cat","Y","","Y",""
"Y","Interventions","__PRESP","prespecified","Pre-specified","70","C","2","","text","NY","Perm","","VariableQualifier","(NY)","","UPPERCASE","Used when a specific intervention is pre-specified on a CRF. Values should be ""Y"" or null.","Used when a specific intervention is pre-specified on a CRF. Values should be ""Y"" or null.","Y","","Y","","Y","Y"
"Y","Interventions","__OCCUR","occurrence","Occurrence","80","C","2","","text","NY","Perm","","RecordQualifier","(NY)","","UPPERCASE","Used to record whether a pre-specified intervention occurred when information about the occurrence of a specific intervention is solicited.","Used to record whether a pre-specified intervention occurred when information about the occurrence of a specific intervention is solicited.","Y","","Y","","Y","N|Y"
"Y","Interventions","__STAT","completion_status","Completion Status","90","C","40","","text","ND","Perm","","RecordQualifier","(ND)","","UPPERCASE","Used to indicate when a question about the occurrence of a pre-specified intervention was not answered. Should be null or have a value of NOT DONE.","Used to indicate when a question about the occurrence of a pre- specified intervention was not answered. Should be null or have a value of NOT DONE.","Y","","Y","","Y",""
"Y","Interventions","__REASND","reason_not_done","Reason Not Done","100","C","200","","text","","Perm","","RecordQualifier","","","UPPERCASE","Reason not done. Used in conjunction with --STAT when value is NOT DONE.","Reason not done. Used in conjunction with --STAT when value is NOT DONE.","Y","","Y","","Y",""
"Y","Interventions","__INDC","primary_indication","Indication","110","C","200","","text","","Perm","","RecordQualifier","","","UPPERCASE","Denotes the indication for the intervention (e.g., why the therapy was taken or administered).","Denotes the indication for the intervention (e.g., why the therapy was taken or administered).","Y","","Y","","Y",""
"Y","Interventions","__CLAS","","Class","120","C","200","","text","","Perm","Assigned","VariableQualifier","*","","UPPERCASE","Class for a medication or treatment, often obtained from a coding dictionary.","Class for a medication or treatment, often obtained from a coding dictionary.","","","","","",""
"Y","Interventions","__CLASCD","","Class Code","130","C","40","","text","","Perm","Assigned","VariableQualifier","*","","UPPERCASE","Used to represent code for --CLAS.","Used to represent code for --CLAS.","","","","","",""
"Y","Interventions","__DOSE","dose","Dose","140","N","8","8.3","float","","Perm","","RecordQualifier","","","","Amount of --TRT given. Not populated when --DOSTXT is populated.","Amount of --TRT given. Not populated when --DOSTXT is populated.","Y","","Y","","Y",""
"Y","Interventions","__DOSTXT","dose_description","Dose Description","150","C","200","","text","","Perm","CRF","RecordQualifier","","","UPPERCASE","Dosing information collected in text form. Examples: <1 per day, 200-400. Not populated when --DOSE is populated.","Dosing information collected in text form. Examples: <1 per day, 200-400. Not populated when --DOSE is populated.","Y","","Y","","Y",""
"Y","Interventions","__DOSU","dose_unit","Dose Units","160","C","40","","text","UNIT","Perm","Assigned","VariableQualifier","(UNIT)","","MIXEDCASE","Units for --DOSE, --DOSTOT, or --DOSTXT (Examples: ng, mg, mg/kg).","Units for --DOSE, --DOSTOT, or --DOSTXT (Examples: ng, mg, mg/kg).","Y","","Y","","Y",""
"Y","Interventions","__DOSFRM","dose_form","Dose Form","170","C","80","","text","FRM","Perm","","VariableQualifier","(FRM)","","UPPERCASE","Dose form for the treatment. Examples: TABLET, CAPSULE.","Dose form for the treatment. Examples: TABLET, CAPSULE.","Y","","Y","","Y",""
"Y","Interventions","__DOSFRQ","frequency","Dosing Frequency per Interval","180","C","40","","text","FREQ","Perm","","VariableQualifier","(FREQ)","","UPPERCASE","Usually expressed as the number of doses given per a specific interval. Examples: QD, BID, TID, QID.","Usually expressed as the number of doses given per a specific interval. Examples: Q2H, QD, PRN.","Y","","Y","","Y",""
"Y","Interventions","__DOSTOT","total_daily_dose","Total Daily Dose","190","N","8","8.3","float","","Perm","CRF","RecordQualifier","","","","Total daily dose of --TRT using the units in --DOSU. Used when dosing is collected as Total Daily Dose.","Total daily dose of --TRT using the units in --DOSU. Used when dosing is collected as Total Daily Dose.","Y","","Y","","Y",""
"Y","Interventions","__DOSRGM","dose_regimen","Intended Dose Regimen","200","C","40","","text","","Perm","","VariableQualifier","","","UPPERCASE","Text description of the (intended) schedule or regimen for the Intervention. Examples: TWO WEEKS ON, TWO WEEKS OFF.","Text description of the (intended) schedule or regimen for the Intervention. Example: TWO WEEKS ON, TWO WEEKS OFF.","Y","","Y","","Y",""
"Y","Interventions","__ROUTE","route","Route of Administration","210","C","40","","text","ROUTE","Perm","","VariableQualifier","(ROUTE)","","UPPERCASE","Route of administration for the intervention. Examples: ORAL, INTRAVENOUS.","Route of administration for the intervention. Examples: ORAL, INTRAVENOUS.","Y","","Y","","Y",""
"Y","Interventions","__LOT","lot_number","Lot Number","220","C","40","","text","","Perm","","RecordQualifier","","","UPPERCASE","Lot number for the intervention described in --TRT.","Lot number for the intervention described in --TRT.","","","","","",""
"Y","Interventions","__LOC","location","Location of Dose Administration","230","C","100","","text","LOC","Perm","","RecordQualifier","(LOC)","","UPPERCASE","Anatomical location of an intervention, such as an injection site. Example: ARM for an injection.","Anatomical location of an intervention, such as an injection site. Example: ARM for an injection.","Y","","Y","","Y",""
"Y","Interventions","__LAT","laterality","Laterality","240","C","40","","text","LAT","Perm","","VariableQualifier","(LAT)","","UPPERCASE","","Qualifier for anatomical location further detailing laterality of intervention administration. Examples: RIGHT, LEFT, BILATERAL","Y","","Y","","Y",""
"Y","Interventions","__DIR","directionality","Directionality","250","C","40","","text","DIR","Perm","","VariableQualifier","(DIR)","","UPPERCASE","","Qualifier for anatomical location further detailing directionality of intervention administration. Examples: ANTERIOR, LOWER, PROXIMAL","","","","","",""
"Y","Interventions","__PORTOT","portion","Portion or Totality","260","C","40","","text","PORTOT","Perm","","VariableQualifier","(PORTOT)","","UPPERCASE","","Qualifier for anatomical location further detailing the distribution, which means arrangement of, apportioning of the intervention administration. Examples: ENTIRE, SINGLE, SEGMENT, MANY.","","","","","",""
"Y","Interventions","__FAST","fasting_status","Fasting Status","270","C","2","","text","NY","Perm","","RecordQualifier","(NY)","","UPPERCASE","","Indicator used to identify fasting status. Valid values include Y, N, U or null if not relevant.","Y","","Y","","",""
"Y","Interventions","__PSTRG","strength","Pharmaceutical Strength","280","N","8","8.3","float","","Perm","","VariableQualifier","","","","","Amount of an active ingredient expressed quantitatively per dosage unit, per unit of volume, or per unit of weight, according to the pharmaceutical dose form. Example: 50 mg/TABLET, 300 mg/L","","","","","",""
"Y","Interventions","__PSTRGU","strength_unit","Pharmaceutical Strength Units","290","C","80","","text","","Perm","","VariableQualifier","*","","MIXEDCASE","","Unit for --PSTRG. Example: mg/TABLET, mg/mL","","","","","",""
"Y","Interventions","__TRTV","","Treatment Vehicle","300","C","80","","text","","Perm","","RecordQualifier","","","UPPERCASE","Vehicle for administration of treatment, such as a liquid in which the treatment drug is dissolved. Example: SALINE.","Vehicle for administration of treatment, such as a liquid in which the treatment drug is dissolved. Example: SALINE.","","","","","",""
"Y","Interventions","__VAMT","","Treatment Vehicle Amount","310","N","8","8.3","float","","Perm","","RecordQualifier","","","","Amount of the treatment vehicle administered or given.","Amount of the prepared product (treatment + vehicle) administered or given. Note: should not be diluent amount alone.","","","","","",""
"Y","Interventions","__VAMTU","","Treatment Vehicle Amount Units","320","C","40","","text","","Perm","Assigned","VariableQualifierof__VAMT","","","MIXEDCASE","Units for the treatment vehicle. Examples: mL, mg.","Units for the prepared product (treatment + vehicle). Examples: mL, mg.","","","","","",""
"Y","Interventions","__ADJ","","Reason for Dose Adjustment","330","C","200","","text","","Perm","","RecordQualifier","*","","UPPERCASE","Describes reason or explanation of why a dose is adjusted. Examples ADVERSE EVENT, INSUFFICIENT RESPONSE, NON-MEDICAL REASON.","Describes reason or explanation of why a dose is adjusted. Examples ADVERSE EVENT, INSUFFICIENT RESPONSE, NON-MEDICAL REASON.","Y","","Y","","Y",""
"","NN DEFINED","CDMS_SUB_EVT_NUM","","CDMS Repeat Sequence Number","10","N","8","","integer","","Perm","","RecordQualifier","","","","","","","src.cdms_sub_evt_num","Y","Y","",""
"","NN DEFINED","SRC_ATC_CODE","","SRC ATC Code","20","C","200","","text","","Perm","","RecordQualifier","","","UPPERCASE","","","","src.src_atc_code","Y","Y","",""
"","NN DEFINED","__REPNUM","","Repetition Number","30","N","8","","integer","","Perm","Assigned","RecordQualifier","","","","","The incidence number of a test that is repeated within a given timeframe for the same test. The level of granularity can vary, e.g., within a time point or within a visit. For example, multiple measurements of blood pressure or multiple analyses of a sample.","","","","","",""
"","NN DEFINED","SRC_DESC","","SRC Visit Description","40","C","200","","text","","Perm","","RecordQualifier","","","UPPERCASE","","","","src.src_desc","Y","Y","",""
"","NN DEFINED","SRC_ATC_TERM","","SRC ATC Term","50","C","200","","text","","Perm","","RecordQualifier","","","UPPERCASE","","","","src.src_atc_term","Y","Y","",""
"","NN DEFINED","SRC_TOPIC_CD","","CDW SRC Topic Code","60","C","200","","text","","Perm","","Topic","","","","","","","src.src_topic_cd","Y","Y","",""
"","NN DEFINED","VISIT","","Visit Name","70","C","40","","text","","Perm","","Timing","","","UPPERCASE","Protocol-defined description of a clinical encounter.","Protocol-defined description of a clinical encounter.","","","","Y","",""
"","NN DEFINED","VISITNUM","","Visit Number","80","N","8","8.1","float","","Exp","Assigned","Timing","","","","Clinical encounter number. Numeric version of VISIT, used for sorting.","Clinical encounter number. Numeric version of VISIT, used for sorting.","Y","","Y","Y","",""
"","NN DEFINED","SRC_FIND_COLL_UNIT","","CDW SRC Finding Collection Unit","90","C","80","","text","","Perm","","RecordQualifier","","","","","","","src.find_coll_unit","Y","Y","",""
"","NN DEFINED","VISITDY","","Planned Study Day of Visit","100","N","8","","integer","","Perm","Assigned","Timing","","","","Based on TV.VISITDY","Planned study day of VISIT. Should be an integer.","","","","Y","",""
"","NN DEFINED","TOPIC_CD","","CDW Topic Code","110","C","80","","text","","Perm","","Topic","","","","","","","src.topic_cd","Y","Y","Y",""
"","NN DEFINED","USUBJID","","Unique Subject Identifier","120","C","60","","text","","Req","Assigned","Identifier","","","UPPERCASE","Concatenation of STUDYID and DM.SUBJID (This is a variable for internal system use)","Identifier used to uniquely identify a subject across all studies for all applications or submissions involving the product.","*","","Y","Y","Y",""
"","NN DEFINED","SRC_RANDOM_GRP","","CDW SRC Randomisation Group","130","C","25","","text","","Perm","","RecordQualifier","","","","","","","src.src_random_grp","Y","Y","",""
"","NN DEFINED","SRC_DOSE_UNIT","","CDW SRC Dose Unit","140","C","200","","text","","Perm","","RecordQualifier","","","","","","","src.src_dose_unit","Y","Y","",""
"","NN DEFINED","SRC_DOSE_FREQ","","CDW SRC Dose Frequency","150","C","200","","text","","Perm","","RecordQualifier","","","","","","","src.src_dose_freq","Y","Y","",""
"","NN DEFINED","ETCD","","Element Code","160","C","8","","text","","Req","Assigned","RecordQualifier","*","","UPPERCASE","Set based on the SE domain","ETCD (the companion to ELEMENT) is limited to 8 characters and does not have special character restrictions. These values should be short for ease of use in programming, but it is not expected that ETCD will need to serve as a variable name.","","","","","Y",""
"","NN DEFINED","ELEMENT","","Description of Element","170","C","40","","text","","Req","Protocol","RecordQualifier","*","","UPPERCASE","Set based on the SE domain","The name of the Element.","","","","","Y",""
"","NSV","__CNTMOD","","Contact Mode","10","C","40","","text","CNTMODE","Perm","CRF","RecordQualifier","(CNTMODE)","","UPPERCASE","","","Y","","Y","","",""
"","NSV","__EPADJI","","Epi/Pandemic Related Adjustment Reas Ind","20","C","2","","text","NY","Perm","CRF","RecordQualifier","(NY)","","UPPERCASE","","Non-standard Variable from Guidance for Ongoing Studies Disrupted by COVID-19 Pandemic Version 1.0","Y","","Y","","","Y"
"","NSV","__EPDSCI","","Epi/Pandemic Related Discontin Reas Ind","30","C","2","","text","NY","Perm","CRF","RecordQualifier","(NY)","","UPPERCASE","","Non-standard Variable from Guidance for Ongoing Studies Disrupted by COVID-19 Pandemic Version 1.0","Y","","Y","","","Y"
"","NSV","__EPRELI","","Epi/Pandemic Related Indicator","40","C","2","","text","NY","Perm","CRF","RecordQualifier","(NY)","","UPPERCASE","","Non-standard Variable from Guidance for Ongoing Studies Disrupted by COVID-19 Pandemic Version 1.0","Y","","Y","","","Y"
"","NSV","__EPCHGI","","Epi/Pandemic Related Change Indicator","50","C","2","","text","NY","Perm","CRF","RecordQualifier","(NY)","","UPPERCASE","","","Y","","Y","","","Y"
"","NSV","__REASOC","","Reason for Occur Value","60","C","200","","text","","Perm","CRF","RecordQualifier","","","UPPERCASE","","","Y","","Y","","",""
"Y","Relationship-RELREC","STUDYID","","Study Identifier","10","C","40","","text","","Req","Protocol","","","","UPPERCASE","","Unique identifier for a study","","","","","",""
"Y","Relationship-RELREC","RDOMAIN","","Related Domain Abbreviation","20","C","8","","text","","Req","Assigned","","DOMAIN","","UPPERCASE","Domain abbreviations for domains which are related to at least one other domain. Derived from parent record","Two-character abbreviation for the domain of the parent record(s)","","","","","",""
"Y","Relationship-RELREC","USUBJID","","Unique Subject Identifier","30","C","60","","text","","Exp","Assigned","","","","UPPERCASE","Concatenation of STUDYID and DM.SUBJID","Identifier used to uniquely identify a subject across all studies for all applications or submissions involving the product.","","","","","",""
"Y","Relationship-RELREC","IDVAR","","Identifying Variable","40","C","8","","text","","Req","Assigned","","*","","UPPERCASE","Derived from parent record","Name of the identifying variable in the general- observation-class dataset that identifies the related record(s). Examples include --SEQ and --GRPID.","","","","","",""
"Y","Relationship-RELREC","IDVARVAL","","Identifying Variable Value","50","C","40","","text","","Exp","Assigned","","","","UPPERCASE","Derived from parent record","Value of identifying variable described in IDVAR. If --SEQ is the variable being used to describe this record, then the value of --SEQ would be entered here.","","","","","",""
"Y","Relationship-RELREC","RELTYPE","","Relationship Type","60","C","20","","text","","Exp","Assigned","","ONE, MANY","","UPPERCASE","","Identifies the hierarchical level of the records in the relationship. Values should be either ONE or MANY. Used only when identifying a relationship between datasets (as described in Section 8.3).","","","","","",""
"Y","Relationship-RELREC","RELID","","Relationship Identifier","70","C","40","","text","","Req","Assigned","","","","UPPERCASE","Records with the same RELID value can be considered as related records","Unique value within USUBJID that identifies the relationship. All records for the same USUBJID that have the same RELID are considered ""related/associated."" RELID can be any value the sponsor chooses, and is only meaningful within the RELREC dataset to identify the related/associated Domain records.","","","","","",""
"Y","Special-Purpose-SE","SEUPDES","","Description of Unplanned Element","10","C","200","","text","","Perm","Assigned","SynonymQualifier","","","UPPERCASE","","Description of what happened to the subject during this unplanned Element. Used only if ETCD has the value of ""UNPLAN"".","","","","","",""
"Y","Special-Purpose-SE","ETCD","","Element Code","20","C","8","","text","","Req","Assigned","Topic","*","","UPPERCASE","","1. ETCD (the companion to ELEMENT) is limited to 8 characters and does not have special character restrictions. These values should be short for ease of use in programming, but it is not expected that ETCD will need to serve as a variable name. 2. If an encountered Element differs from the planned Element to the point that it is considered a new Element, then use ""UNPLAN"" as the value for ETCD to represent this Element.","","","","","",""
"Y","Special-Purpose-SE","ELEMENT","","Description of Element","30","C","40","","text","","Perm","Protocol","SynonymQualifier","*","","UPPERCASE","","The name of the Element. If ETCD has a value of ""UNPLAN"" then ELEMENT should be Null.","","","","","",""
"Y","Relationship-SUPPQUAL","STUDYID","","Study Identifier","10","C","40","","text","","Req","Protocol","","","","UPPERCASE","","Study Identifier of the Parent record(s).","","","","","",""
"Y","Relationship-SUPPQUAL","RDOMAIN","","Related Domain Abbreviation","20","C","8","","text","","Req","Assigned","","DOMAIN","","UPPERCASE","Domain abbreviations for domains which are related to at least one other domain. Derived from parent record","Two-character abbreviation for the domain of the parent record(s).","","","","","",""
"","Relationship-SUPPQUAL","SPDEVID","","Sponsor Device Identifier","30","C","40","","text","","Req","Assigned","Identifier","","","UPPERCASE","","Sponsor-defined identifier for a device","","","","","",""
"Y","Relationship-SUPPQUAL","USUBJID","","Unique Subject Identifier","40","C","60","","text","","Req","Assigned","","","","UPPERCASE","Concatenation of STUDYID and DM.SUBJID","Unique Subject Identifier of the Parent record(s).","","","","","",""
"Y","Relationship-SUPPQUAL","IDVAR","","Identifying Variable","50","C","8","","text","","Exp","Assigned","","*","","UPPERCASE","","Identifying variable in the dataset that identifies the related record(s). Examples: --SEQ, --GRPID.","","","","","",""
"Y","Relationship-SUPPQUAL","IDVARVAL","","Identifying Variable Value","60","C","40","","text","","Exp","Assigned","","","","UPPERCASE","","Value of identifying variable of the parent record(s).","","","","","",""
"Y","Relationship-SUPPQUAL","QNAM","","Qualifier Variable Name","70","C","8","","text","","Req","Assigned","","*","","UPPERCASE","","The short name of the Qualifier variable, which is used as a column name in a domain view with data from the parent domain. The value in QNAM cannot be longer than 8 characters, nor can it start with a number (e.g., ""1TEST""). QNAM cannot contain characters other than letters, numbers, or underscores. This will often be the column name in the sponsor's operational dataset.","","","","","",""
"Y","Relationship-SUPPQUAL","QLABEL","","Qualifier Variable Label","80","C","40","","text","","Req","Assigned","","","","MIXEDCASE","","This is the long name or label associated with QNAM. The value in QLABEL cannot be longer than 40 characters. This will often be the column label in the sponsor's original dataset.","","","","","",""
"Y","Relationship-SUPPQUAL","QVAL","","Data Value","90","C","200","","text","","Req","CRF","","","","MIXEDCASE","","Result of, response to, or value associated with QNAM. A value for this column is required; no records can be in SUPP-- with a null value for QVAL.","","","","","",""
"Y","Relationship-RELREC","QORIG","","Origin","100","C","20","","text","","Req","Assigned","","","","MIXEDCASE","","Since QVAL can represent a mixture of collected (on a CRF), derived, or assigned items, QORIG is used to indicate the origin of this data. Examples include CRF, ASSIGNED, or DERIVED. See Section 4: 4.1.1.8, Origin Metadata.","","","","","",""
"Y","Relationship-RELREC","QEVAL","","Evaluator","110","C","40","","text","EVAL","Exp","Assigned","","*","","UPPERCASE","","Used only for results that are subjective (e.g., assigned by a person or a group). Should be null for records that contain objectively collected or derived data. Some examples include ADJUDICATION COMMITTEE, STATISTICIAN, DATABASE ADMINISTRATOR, CLINICAL COORDINATOR, etc.","","","","","",""
"Y","Special-Purpose-SV","SVUPDES","","Description of Unplanned Visit","10","C","200","","text","","Perm","CRF","SynonymQualifier","","","UPPERCASE","","Description of what happened to the subject during an unplanned visit.","","","","","",""
"Y","Trial__Design-TA","ARMCD","","Planned Arm Code","10","C","20","","text","","Req","Assigned","Topic","*","","UPPERCASE","","ARMCD is limited to 20 characters and does not have special character restrictions. The maximum length of ARMCD is longer than that for other ""short"" variables to accommodate the kind of values that are likely to be needed for crossover trials. For example, if ARMCD values for a seven-period crossover were constructed using two-character abbreviations for each treatment and separating hyphens, the length of ARMCD values would be 20.","","","","","",""
"Y","Trial__Design-TA","ARM","","Description of Planned Arm","20","C","40","","text","","Req","Protocol","SynonymQualifier","*","","UPPERCASE","","Name given to an Arm or treatment group.","","","","","",""
"Y","Trial__Design-TA","ETCD","","Element Code","30","C","8","","text","","Req","Assigned","RecordQualifier","*","","UPPERCASE","Set based on the SE domain","ETCD (the companion to ELEMENT) is limited to 8 characters and does not have special character restrictions. These values should be short for ease of use in programming, but it is not expected that ETCD will need to serve as a variable name.","","","","","",""
"Y","Trial__Design-TA","ELEMENT","","Description of Element","40","C","40","","text","","Perm","Protocol","SynonymQualifier","*","","UPPERCASE","Set based on the SE domain","The name of the Element. The same Element may occur more than once within an Arm.","","","","","",""
"Y","Trial__Design-TA","TABRANCH","","Branch","50","C","200","","text","","Exp","Protocol","Rule","","","UPPERCASE","","Condition subject met, at a ""branch"" in the trial design at the end of this Element, to be included in this Arm; (e.g., randomization to DRUG X).","","","","","",""
"Y","Trial__Design-TA","TATRANS","","Transition Rule","60","C","200","","text","","Exp","Protocol","Rule","","","UPPERCASE","","If the trial design allows a subject to transition to an Element other than the next Element in sequence, then the conditions for transitioning to those other Elements, and the alternative Element sequences, are specified in this rule (e.g., Responders go to washout).","","","","","",""
"Y","Trial__Design-TD","TDORDER","","Sequence of Planned Assessment Schedule","10","N","8","","integer","","Req","","Timing","","","","","A number given to ensure ordinal sequencing of the planned assessment schedules within a trial.","","","","","",""
"Y","Trial__Design-TD","TDANCVAR","","Anchor Variable Name","20","C","8","","text","","Req","","Timing","","","UPPERCASE","","A reference to the date variable name that provides the start point from which the planned disease assessment schedule is measured. This must be a referenced from the ADaM ADSL dataset e.g. ANCH1DT. Note: TDANCVAR will contain the name of a reference date variable.","","","","","",""
"Y","Trial__Design-TD","TDSTOFF","","Offset from the Anchor","30","C","64","","text","","Req","","Timing","ISO 8601","","UPPERCASE DURATION","","A fixed offset from the date provided by the variable referenced in TDANCVAR. This is used when the timing of planned cycles does not start on the exact day referenced in the variable indicated in TDANCVAR. The value of this variable will be either zero or a positive value and will be represented in ISO 8601 character format.","","","","","",""
"Y","Trial__Design-TD","TDTGTPAI","","Planned Assessment Interval","40","C","64","","text","","Req","","Timing","ISO 8601","","UPPERCASE","","The planned interval between disease assessments represented in ISO 8601 character format.","","","","","",""
"Y","Trial__Design-TD","TDMINPAI","","Planned Assessment Interval Minimum","50","C","64","","text","","Req","","Timing","ISO 8601","","UPPERCASE","","The lower limit of the allowed range for the planned interval between disease assessments represented in ISO 8601 character format.","","","","","",""
"Y","Trial__Design-TD","TDMAXPAI","","Planned Assessment Interval Maximum","60","C","64","","text","","Req","","Timing","ISO 8601","","UPPERCASE","","The upper limit of the allowed range for the planned interval between disease assessments represented in ISO 8601 character format.","","","","","",""
"Y","Trial__Design-TD","TDNUMRPT","","Maximum Number of Actual Assessments","70","N","8","","integer","","Req","","RecordQualifier","","","","","This variable must represent the maximum number of actual assessments for the analysis that this disease assessment schedule describes. In a trial where the maximum number of assessments is not defined explicitly in the protocol (e.g. assessments occur until death) TDNUMRPT should represent the maximum number of disease assessments that support the efficacy analysis, encountered by any subject across the trial at that point in time.","","","","","",""
"Y","Trial__Design-TE","TESTRL","","Rule for Start of Element","10","C","200","","text","","Req","Protocol","Rule","","","UPPERCASE","","Expresses rule for beginning Element.","","","","","",""
"Y","Trial__Design-TE","TEENRL","","Rule for End of Element","20","C","200","","text","","Perm","Protocol","Rule","","","UPPERCASE","","Expresses rule for ending Element. Either TEENRL or TEDUR must be present for each Element.","","","","","",""
"Y","Trial__Design-TE","ELEMENT","","Description of Element","30","C","40","","text","","Req","Protocol","SynonymQualifier","*","","UPPERCASE","","The name of the Element.","","","","","",""
"Y","Trial__Design-TE","ETCD","","Element Code","40","C","8","","text","","Req","Assigned","Topic","*","","UPPERCASE","","ETCD (the companion to ELEMENT) is limited to 8 characters and does not have special character restrictions. These values should be short for ease of use in programming, but it is not expected that ETCD will need to serve as a variable name.","","","","","",""
"Y","Trial__Design-TI","TIRL","","Inclusion/Exclusion Criterion Rule","10","C","200","","text","","Perm","Protocol","Rule","","","UPPERCASE","","Rule that expresses the criterion in computer-executable form (see assumption 4 below).","","","","","",""
"Y","Trial__Design-TI","TIVERS","","Protocol Criteria Versions","20","C","20","","text","","Perm","Protocol","RecordQualifier","","","UPPERCASE","","The number of this version of the Inclusion/Exclusion criteria. May be omitted if there is only one version.","","","","","",""
"Y","General__Observations","VISITNUM","","Visit Number","10","N","8","8.1","float","","Exp","Assigned","Timing","","","","Clinical encounter number. Numeric version of VISIT, used for sorting.","Clinical encounter number. Numeric version of VISIT, used for sorting.","","src.vis_id","Y","","",""
"Y","General__Observations","VISIT","","Visit Name","20","C","40","","text","","Perm","","Timing","","","UPPERCASE","Protocol-defined description of a clinical encounter.","Protocol-defined description of a clinical encounter.","","","","","",""
"Y","General__Observations","VISITDY","","Planned Study Day of Visit","30","N","8","","integer","","Perm","Assigned","Timing","","","","Based on TV.VISITDY","Planned study day of VISIT. Should be an integer.","","","","","",""
"Y","General__Observations","TAETORD","","Planned Order of Element within Arm","40","N","8","","integer","","Perm","","Timing","","","","Number that gives the planned order of the Element within the Arm (see Trial Arms, Section 3.2.2 ).","Number that gives the planned order of the Element within the Arm (see Trial Arms, Section 3.2.2 ).","","","","","",""
"Y","General__Observations","EPOCH","","Epoch","50","C","40","","text","EPOCH","Perm","Protocol","Timing","(EPOCH)","","UPPERCASE","Epoch associated with the start date/time of the observation, or the date/time of collection if start date/time is not collected. (See Section 3.2.2).","Epoch associated with the start date/time of the observation, or the date/time of collection if start date/time is not collected. (See Section 3.2.2).","","","","","",""
"Y","General__Observations","__DTC","collection_datetime","Date/Time of Collection","60","C","64","","datetime","","Exp","","Timing","ISO 8601","","UPPERCASE DATETIME","Collection date and time of an observation represented in IS0 8601 character format.","Collection date and time of an observation represented in IS0 8601 character format.","Y","","Y","","Y",""
"Y","General__Observations","__STDTC","start_datetime","Start Date/Time of Observation","70","C","64","","datetime","","Exp","","Timing","ISO 8601","","UPPERCASE DATETIME","Start date/time of an observation represented in IS0 8601 character format.","Start date/time of an observation represented in IS0 8601 character format.","Y","","Y","","Y",""
"Y","General__Observations","__ENDTC","end_datetime","End Date/Time of Observation","80","C","64","","datetime","","Perm","CRF","Timing","ISO 8601","","UPPERCASE DATETIME","End date/time of the observation represented in IS0 8601 character format.","End date/time of the observation represented in IS0 8601 character format.","Y","","Y","","Y",""
"Y","General__Observations","__DY","","Study Day of Visit/Collection/Exam","90","N","8","","integer","","Perm","Derived","Timing","","","","Actual study day of visit/collection/exam expressed in integer days relative to the sponsor-defined RFSTDTC in Demographics.","Actual study day of visit/collection/exam expressed in integer days relative to the sponsor-defined RFSTDTC in Demographics.","","","","","",""
"Y","General__Observations","__STDY","","Study Day of Start of Observation","100","N","8","","integer","","Perm","Derived","Timing","","","","Actual study day of start of observation expressed in integer days relative to the sponsor-defined RFSTDTC in Demographics.","Actual study day of start of observation expressed in integer days relative to the sponsor-defined RFSTDTC in Demographics.","","","","","",""
"Y","General__Observations","__ENDY","","Study Day of End of Observation","110","N","8","","integer","","Perm","Derived","Timing","","","","Actual study day of end of observation expressed in integer days relative to the sponsor-defined RFSTDTC in Demographics.","Actual study day of end of observation expressed in integer days relative to the sponsor-defined RFSTDTC in Demographics.","","","","","",""
"Y","General__Observations","__DUR","","Duration","120","C","64","","text","","Perm","CRF","Timing","ISO 8601","","UPPERCASE DURATION","Collected duration of an event, intervention, or finding represented in ISO 8601 character format. Used only if collected on the CRF and not derived.","Collected duration of an event, intervention, or finding represented in ISO 8601 character format. Used only if collected on the CRF and not derived.","","","","","",""
"Y","General__Observations","__TPT","time_point","Planned Time Point Name","130","C","80","","text","","Perm","","Timing","","","UPPERCASE","Text description of time when a measurement or observation should be taken as defined in the protocol. This may be represented as an elapsed time relative to a fixed reference point, such as time of last dose. See --TPTNUM and --TPTREF.","Text description of time when a measurement or observation should be taken as defined in the protocol. This may be represented as an elapsed time relative to a fixed reference point, such as time of last dose. See --TPTNUM and -- TPTREF.","Y","","Y","","Y",""
"Y","General__Observations","__TPTNUM","","Planned Time Point Number","140","N","8","8.1","float","","Perm","","Timing","","","","Numeric version of planned time point used in sorting.","Numeric version of planned time point used in sorting.","Y","","Y","","Y",""
"Y","General__Observations","__ELTM","elapsed_time","Planned Elapsed Time from Time Point Ref","150","C","64","","text","","Perm","","Timing","ISO 8601","","UPPERCASE DURATION","Planned Elapsed time in ISO 8601 character format relative to a planned fixed reference (--TPTREF) such as ""Previous Dose"" or ""Previous Meal"". This variable is useful where there are repetitive measures. Not a clock time or a date/time variable, but an interval, represented as ISO duration.","Planned Elapsed time in ISO 8601 character format relative to a planned fixed reference (--TPTREF) such as ""Previous Dose"" or ""Previous Meal"". This variable is useful where there are repetitive measures. Not a clock time or a date/time variable, but an interval, represented as ISO duration.","Y","","Y","","Y",""
"Y","General__Observations","__TPTREF","","Time Point Reference","160","C","40","","text","","Perm","","Timing","","","UPPERCASE","Description of the fixed reference point referred to by --ELTM, --TPTNUM, and --TPT. Examples: PREVIOUS DOSE, PREVIOUS MEAL.","Description of the fixed reference point referred to by --ELTM, --TPTNUM, and --TPT. Examples: PREVIOUS DOSE, PREVIOUS MEAL.","Y","","Y","","Y",""
"Y","General__Observations","__RFTDTC","","Date/Time of Reference Time Point","170","C","64","","datetime","","Perm","","Timing","ISO 8601","","UPPERCASE DATETIME","Date/time for a fixed reference time point defined by --TPTREF in ISO 8601 character format.","Date/time for a fixed reference time point defined by --TPTREF in ISO 8601 character format.","Y","","Y","","Y",""
"Y","General__Observations","__STRF","","Start Relative to Reference Period","180","C","20","","text","STENRF","Perm","","Timing","(STENRF)","","UPPERCASE","Identifies the start of the observation as being before, during, or after the sponsor-defined reference period. The sponsor-defined reference period is a continuous period of time defined by a discrete starting point and a discrete ending point represented by RFSTDTC and RFENDTC in Demographics.","Identifies the start of the observation as being before, during, or after the sponsor-defined reference period. The sponsor-defined reference period is a continuous period of time defined by a discrete starting point and a discrete ending point represented by RFSTDTC and RFENDTC in Demographics. Note: This variable will be deprecated (phased out) in a future (post SDTM v1.4) release. The functionality of this variable can be replaced by the use of - -STRTPT with --STTPT = RFSTDTC.","Y","","Y","","",""
"Y","General__Observations","__ENRF","","End Relative to Reference Period","190","C","20","","text","STENRF","Perm","","Timing","(STENRF)","","UPPERCASE","Identifies the end of the observation as being before, during or after the sponsor-defined reference period. The sponsor-defined reference period is a continuous period of time defined by a discrete starting point and a discrete ending point represented by RFSTDTC and RFENDTC in Demographics.","Identifies the end of the observation as being before, during or after the sponsor-defined reference period. The sponsor-defined reference period is a continuous period of time defined by a discrete starting point and a discrete ending point represented by RFSTDTC and RFENDTC in Demographics. Note: This variable will be deprecated (phased out) in a future (post SDTM v1.4) release. The functionality of this variable can be replaced by the use of - -ENRTPT with --ENTPT = RFENDTC.","Y","","Y","","",""
"Y","General__Observations","__EVLINT","","Evaluation Interval","200","C","64","","text","","Perm","","Timing","ISO 8601","","UPPERCASE DURATION","Duration of interval associated with an observation such as a finding --TESTCD, represented in ISO 8601 character format. Example: -P2M to represent a period of the past 2 months as the evaluation interval for a question from a questionnaire such as SF-36.","Duration of interval associated with an observation such as a finding -- TESTCD, represented in ISO 8601 character format. Example: -P2M to represent a period of the past 2 months as the evaluation interval for a question from a questionnaire such as SF-36.","Y","","Y","","",""
"Y","General__Observations","__EVINTX","","Evaluation Interval Text","210","C","40","","text","","Perm","CRF","Timing","","","UPPERCASE","","Evaluation interval associated with an observation, where the interval is not able to be represented in ISO 8601 format. Examples: LIFETIME, LAST NIGHT, RECENTLY, OVER THE LAST FEW WEEKS.","Y","","Y","","",""
"Y","General__Observations","__STRTPT","","Start Relative to Reference Time Point","220","C","40","","text","STENRF","Perm","","Timing","(STENRF)","","UPPERCASE","Identifies the start of the observation as being before or after the sponsor-defined reference time point defined by variable --STTPT.","Identifies the start of the observation as being before or after the sponsor- defined reference time point defined by variable --STTPT.","Y","","Y","","",""
"Y","General__Observations","__STTPT","","Start Reference Time Point","230","C","40","","text","","Perm","","Timing","","","UPPERCASE","Description or date/time in ISO 8601 or other character format of the sponsor-defined reference point referred to by --STRTPT. Examples: ""2003-12-15"" or ""VISIT 1"".","Description or date/time in ISO 8601 or other character format of the sponsor- defined reference point referred to by --STRTPT. Examples: ""2003-12-15"" or ""VISIT 1"".","","","","","",""
"Y","General__Observations","__ENRTPT","","End Relative to Reference Time Point","240","C","40","","text","STENRF","Perm","","Timing","(STENRF)","","UPPERCASE","Identifies the end of the observation as being before or after the sponsor-defined reference time point defined by variable --ENTPT.","Identifies the end of the observation as being before or after the sponsor- defined reference time point defined by variable --ENTPT.","Y","","Y","","",""
"Y","General__Observations","__ENTPT","","End Reference Time Point","250","C","40","","text","","Perm","","Timing","","","UPPERCASE","Description or date/time in ISO 8601 or other character format of the sponsor-defined reference point referred to by --ENRTPT. Examples: ""2003-12-25"" or ""VISIT 2"".","Description or date/time in ISO 8601 or other character format of the sponsor- defined reference point referred to by --ENRTPT. Examples: ""2003-12-25"" or ""VISIT 2"".","","","","","",""
"Y","General__Observations","__STINT","","Planned Start of Assessment Interval","260","C","64","","text","","Perm","","Timing","ISO 8601","","UPPERCASE DURATION","","The start of a planned evaluation or assessment interval in ISO 8601 character format relative to the Time Point Reference (--TPTREF).","","","","","",""
"Y","General__Observations","__ENINT","","Planned End of Assessment Interval","270","C","64","","text","","Perm","","Timing","ISO 8601","","UPPERCASE DURATION","","The end of a planned evaluation or assessment interval in ISO 8601 character format relative to the Time Point Reference (--TPTREF).","","","","","",""
"Y","General__Observations","__DETECT","","Time in Days to Detection","280","N","8","","integer","","Perm","","Timing","","","","","The number of days from the start of dosing to the earliest detection of a condition or pathogen.","","","","","",""
"Y","Trial__Design-TS","TSPARMCD","","Trial Summary Parameter Short Name","10","C","8","","text","TSPARMCD","Req","Assigned","Topic","(TSPARMCD)","","UPPERCASE","","TSPARMCD (the companion to TSPARM) is limited to 8 characters and does not have special character restrictions. These values should be short for ease of use in programming, but it is not expected that TSPARMCD will need to serve as variable names. Examples: AGEMIN, AGEMAX","","","","","",""
"Y","Trial__Design-TS","TSPARM","","Trial Summary Parameter","20","C","40","","text","TSPARM","Req","Protocol","SynonymQualifier","(TSPARM)","","MIXEDCASE","","Term for the Trial Summary Parameter. The value in TSPARM cannot be longer than 40 characters. Examples Planned Minimum Age of Subjects, Planned Maximum Age of Subjects","","","","","",""
"Y","Trial__Design-TS","TSVAL","","Parameter Value","30","C","200","","text","","Exp","Protocol","ResultQualifier","*","","MIXEDCASE","","Value of TSPARM. Example: ""ASTHMA"" when TSPARM value is ""Trial Indication"". TSVAL can only be null when TSVALNF is populated. Text over 200 characters can be added to additional columns TSVAL1-TSVALn.","","","","","",""
"","Trial__Design-TS","TSVAL1","","Parameter Value 1","40","C","200","","text","","Perm","Protocol","ResultQualifier","","","MIXEDCASE","","","","","","","",""
"","Trial__Design-TS","TSVAL2","","Parameter Value 2","50","C","200","","text","","Perm","Protocol","ResultQualifier","","","MIXEDCASE","","","","","","","",""
"","Trial__Design-TS","TSVAL3","","Parameter Value 3","60","C","200","","text","","Perm","Protocol","ResultQualifier","","","MIXEDCASE","","","","","","","",""
"","Trial__Design-TS","TSVAL4","","Parameter Value 4","70","C","200","","text","","Perm","Protocol","ResultQualifier","","","MIXEDCASE","","","","","","","",""
"","Trial__Design-TS","TSVAL5","","Parameter Value 5","80","C","200","","text","","Perm","Protocol","ResultQualifier","","","MIXEDCASE","","","","","","","",""
"","Trial__Design-TS","TSVAL6","","Parameter Value 6","90","C","200","","text","","Perm","Protocol","ResultQualifier","","","MIXEDCASE","","","","","","","",""
"","Trial__Design-TS","TSVAL7","","Parameter Value 7","100","C","200","","text","","Perm","Protocol","ResultQualifier","","","MIXEDCASE","","","","","","","",""
"","Trial__Design-TS","TSVAL8","","Parameter Value 8","110","C","200","","text","","Perm","Protocol","ResultQualifier","","","MIXEDCASE","","","","","","","",""
"","Trial__Design-TS","TSVAL9","","Parameter Value 9","120","C","200","","text","","Perm","Protocol","ResultQualifier","","","MIXEDCASE","","","","","","","",""
"Y","Trial__Design-TS","TSVALNF","","Parameter Null Flavor","130","C","40","","text","","Perm","Protocol","ResultQualifier","NULLFLAVOR","","UPPERCASE","","Null flavor for the value of TSPARM, to be populated if and only if TSVAL is null.","","","","","",""
"Y","Trial__Design-TS","TSVALCD","","Parameter Value Code","140","C","80","","text","","Exp","Protocol","ResultQualifier","*","","UPPERCASE","","This is the code of the term in TSVAL. For example; 6CW7F3G59X is the code for Gabapentin, C49488 is the code for Y. The length of this variable can be longer than 8 to accommodate the length of the external terminology.","","","","","",""
"Y","Trial__Design-TS","TSVCDREF","","Name of the Reference Terminology","150","C","40","","text","","Exp","Protocol","ResultQualifier","","","MIXEDCASE","","The name of the Reference Terminology from which TSVALCD is taken. For example; CDISC, SNOMED, ISO 8601.","","","","","",""
"Y","Trial__Design-TS","TSVCDVER","","Version of the Reference Terminology","160","C","40","","text","","Exp","Protocol","ResultQualifier","","","UPPERCASE","","The version number of the Reference Terminology, if applicable.","","","","","",""
"Y","Trial__Design-TV","ARMCD","","Planned Arm Code","10","C","20","","text","","Exp","Assigned","RecordQualifier","*","","UPPERCASE","","1.ARMCD is limited to 20 characters and does not have special character restrictions. The maximum length of ARMCD is longer than for other ""short"" variables to accommodate the kind of values that are likely to be needed for crossover trials. For example, if ARMCD values for a seven- period crossover were constructed using two-character abbreviations for each treatment and separating hyphens, the length of ARMCD values would be 20. 2. If the timing of Visits for a trial does not depend on which ARM a subject is in, then ARMCD should be null.","","","","","",""
"Y","Trial__Design-TV","ARM","","Description of Planned Arm","20","C","40","","text","","Perm","Protocol","SynonymQualifier","*","","UPPERCASE","","1. Name given to an Arm or Treatment Group. 2. If the timing of Visits for a trial does not depend on which Arm a subject is in, then Arm should be left blank.","","","","","",""
"Y","Trial__Design-TV","TVSTRL","","Visit Start Rule","30","C","200","","text","","Req","Protocol","Rule","","","UPPERCASE","","Rule describing when the Visit starts, in relation to the sequence of Elements.","","","","","",""
"Y","Trial__Design-TV","TVENRL","","Visit End Rule","40","C","200","","text","","Perm","Protocol","Rule","","","UPPERCASE","","Rule describing when the Visit ends, in relation to the sequence of Elements.","","","","","",""
"","[NEW]","","","","        .","","        .","","","","","","","","","","","","","","","","",""
