{
  "items": [
    {
      "changeDescription": "Approved version",
      "comment": "UCUM definition: \"Arbitrary or procedure defined units are units whose meaning entirely depends on the measurement procedure (assay). These units have no general meaning in relation with any other unit in the SI\". CDISC definition: \"A unit based on or subject to individual judgment, preference, or predetermined reference. (NCI)\". Only used on one code PAI_1_ACTIV_CHROM_PL. We should consider to not use \"arbitrary units\".",
      "conversionFactorToMaster": 1.0,
      "convertibleUnit": false,
      "ctUnits": [
        {
          "name": "Arbitrary U",
          "termUid": "C75765_Arbitrary U"
        }
      ],
      "definition": "A unit based on or subject to individual judgment, preference, or predetermined reference. (NCI)",
      "displayUnit": true,
      "endDate": null,
      "legacyCode": "arbitrary units",
      "libraryName": "Sponsor",
      "masterUnit": true,
      "molecularWeightConvExpon": null,
      "name": "arbitrary units",
      "order": 1,
      "siUnit": false,
      "startDate": "2022-07-06T19:27:43.285238",
      "status": "Final",
      "templateParameter": false,
      "ucum": {
        "name": "[arb'U]",
        "termUid": "DictionaryTerm_000082"
      },
      "uid": "UnitDefinition_000001",
      "unitDimension": {
        "name": "Arbitrariness",
        "termUid": "CTTerm_000254"
      },
      "unitSubsets": [],
      "usConventionalUnit": false,
      "userInitials": "unknown-user",
      "version": "1.0"
    },
    {
      "changeDescription": "Approved version",
      "comment": "0",
      "conversionFactorToMaster": 1.0,
      "convertibleUnit": true,
      "ctUnits": [
        {
          "name": "cm2",
          "termUid": "C48460_cm2"
        }
      ],
      "definition": "<CodeLists>_x005F_x000D_\n<CodeList Value=\"UNIT\"></CodeList>_x005F_x000D_\n<CodeList Value=\"VSRESU\" CodeSubmValue=\"cm2\"></CodeList>_x005F_x000D_\n</CodeLists>_x005F_x000D_\nCDISC code: C48460_x005F_x000D_\nCDISC submission value: cm2_x005F_x000D_\nCDISC synonym: Square Centimeter_x005F_x000D_\nCDISC Description: A unit of area measurement equal to a square measuring one centimeter on each side. One square centimeter is equal to 10E-4 square meter.(NCI)_x005F_x000D_\nNCI preferred term: Square Centimeter_x005F_x000D_\n",
      "displayUnit": true,
      "endDate": null,
      "legacyCode": "cm^2",
      "libraryName": "Sponsor",
      "masterUnit": true,
      "molecularWeightConvExpon": null,
      "name": "cm^2",
      "order": 1,
      "siUnit": true,
      "startDate": "2022-07-06T19:27:43.576860",
      "status": "Final",
      "templateParameter": false,
      "ucum": {
        "name": "cm2",
        "termUid": "DictionaryTerm_000880"
      },
      "uid": "UnitDefinition_000002",
      "unitDimension": {
        "name": "Area",
        "termUid": "C25244_AREA"
      },
      "unitSubsets": [],
      "usConventionalUnit": true,
      "userInitials": "unknown-user",
      "version": "1.0"
    },
    {
      "changeDescription": "Approved version",
      "comment": "0",
      "conversionFactorToMaster": 60.0,
      "convertibleUnit": true,
      "ctUnits": [
        {
          "name": "Hz",
          "termUid": "C42545_Hz"
        }
      ],
      "definition": "CDISC submission value: Hz_x005F_x000D_\nA unit of frequency equal to one cycle per second.(NCI)",
      "displayUnit": true,
      "endDate": null,
      "legacyCode": "Hz",
      "libraryName": "Sponsor",
      "masterUnit": false,
      "molecularWeightConvExpon": 0,
      "name": "Hz",
      "order": 100,
      "siUnit": true,
      "startDate": "2022-07-06T19:27:43.934297",
      "status": "Final",
      "templateParameter": false,
      "ucum": {
        "name": "Hz",
        "termUid": "DictionaryTerm_000263"
      },
      "uid": "UnitDefinition_000003",
      "unitDimension": {
        "name": "Beat rate",
        "termUid": "CTTerm_000253"
      },
      "unitSubsets": [],
      "usConventionalUnit": true,
      "userInitials": "unknown-user",
      "version": "1.0"
    },
    {
      "changeDescription": "Approved version",
      "comment": "Note that this unit exists in four unit dimensions, i.e Beat rate, elimination, Respiratory rate and count per time",
      "conversionFactorToMaster": 1.0,
      "convertibleUnit": true,
      "ctUnits": [
        {
          "name": "beats/min",
          "termUid": "C49673_beats/min"
        }
      ],
      "definition": "<CodeLists>_x005F_x000D_\n<CodeList Value=\"UNIT\"></CodeList>_x005F_x000D_\n<CodeList Value=\"VSRESU\"></CodeList>_x005F_x000D_\n</CodeLists>_x005F_x000D_\nCDISC code: C49673_x005F_x000D_\nCDISC submission value: BEATS/MIN_x005F_x000D_\nCDISC synonym: Beats per Minute_x005F_x000D_\nCDISC Description: The number of heartbeats measured per minute time. (NCI)_x005F_x000D_\nNCI preferred term: Beats per Minute_x005F_x000D_\n",
      "displayUnit": true,
      "endDate": null,
      "legacyCode": "beats/min",
      "libraryName": "Sponsor",
      "masterUnit": true,
      "molecularWeightConvExpon": null,
      "name": "beats/min",
      "order": 20,
      "siUnit": false,
      "startDate": "2022-07-06T19:27:44.192059",
      "status": "Final",
      "templateParameter": false,
      "ucum": {
        "name": "/min",
        "termUid": "DictionaryTerm_000773"
      },
      "uid": "UnitDefinition_000004",
      "unitDimension": {
        "name": "Beat rate",
        "termUid": "CTTerm_000253"
      },
      "unitSubsets": [],
      "usConventionalUnit": true,
      "userInitials": "unknown-user",
      "version": "1.0"
    },
    {
      "changeDescription": "Approved version",
      "comment": "0",
      "conversionFactorToMaster": 10.0,
      "convertibleUnit": true,
      "ctUnits": [
        {
          "name": "g/cm2",
          "termUid": "C71201_g/cm2"
        }
      ],
      "definition": "CDISC code: C71201_x005F_x000D_\nCDISC submission value: g/cm2_x005F_x000D_\nCDISC synonym: Gram per Square Centimeter_x005F_x000D_\nCDISC Description: A unit of area density defined as a spread rate at which one gram of a substance is spread over the area of one square centimeter. The unit is also used as a dose calculation unit.(NCI)_x005F_x000D_\nNCI preferred term: Gram per Square Centimeter",
      "displayUnit": true,
      "endDate": null,
      "legacyCode": "g/cm^2",
      "libraryName": "Sponsor",
      "masterUnit": false,
      "molecularWeightConvExpon": null,
      "name": "g/cm^2",
      "order": 25,
      "siUnit": false,
      "startDate": "2022-07-06T19:27:44.520727",
      "status": "Final",
      "templateParameter": false,
      "ucum": {
        "name": "g/cm2",
        "termUid": "DictionaryTerm_000256"
      },
      "uid": "UnitDefinition_000005",
      "unitDimension": {
        "name": "Body Mass Index",
        "termUid": "C16358_BMI"
      },
      "unitSubsets": [],
      "usConventionalUnit": true,
      "userInitials": "unknown-user",
      "version": "1.0"
    },
    {
      "changeDescription": "Approved version",
      "comment": "0",
      "conversionFactorToMaster": 10.0,
      "convertibleUnit": true,
      "ctUnits": [
        {
          "name": "10^10/L",
          "termUid": "C105517_10^10/L"
        }
      ],
      "definition": "Equal to 10^10/L_x005F_x000D_\nCDISC:Not Found",
      "displayUnit": true,
      "endDate": null,
      "legacyCode": "10^4/mm^3",
      "libraryName": "Sponsor",
      "masterUnit": false,
      "molecularWeightConvExpon": null,
      "name": "10^4/mm^3",
      "order": 30,
      "siUnit": false,
      "startDate": "2022-07-06T19:27:44.757697",
      "status": "Final",
      "templateParameter": false,
      "ucum": null,
      "uid": "UnitDefinition_000006",
      "unitDimension": {
        "name": "Specified Cell Count Test",
        "termUid": "C174332_CELL COUNT"
      },
      "unitSubsets": [],
      "usConventionalUnit": true,
      "userInitials": "unknown-user",
      "version": "1.0"
    },
    {
      "changeDescription": "Approved version",
      "comment": "0",
      "conversionFactorToMaster": 1.0,
      "convertibleUnit": true,
      "ctUnits": [
        {
          "name": "kg/m2",
          "termUid": "C49671_kg/m2"
        }
      ],
      "definition": "<CodeLists>_x005F_x000D_\n<CodeList Value=\"UNIT\"></CodeList>_x005F_x000D_\n<CodeList Value=\"VSRESU\"></CodeList>_x005F_x000D_\n</CodeLists>_x005F_x000D_\nCDISC code: C49671_x005F_x000D_\nCDISC submission value: kg/m2_x005F_x000D_\nCDISC synonym: Kilogram per Square Meter_x005F_x000D_\nCDISC Description: A unit expressed as kilogram of mass per square meter of area.(NCI)_x005F_x000D_\nNCI preferred term: Kilogram Per Square Meter",
      "displayUnit": true,
      "endDate": null,
      "legacyCode": "kg/m^2",
      "libraryName": "Sponsor",
      "masterUnit": true,
      "molecularWeightConvExpon": null,
      "name": "kg/m^2",
      "order": 25,
      "siUnit": true,
      "startDate": "2022-07-06T19:27:44.968164",
      "status": "Final",
      "templateParameter": false,
      "ucum": {
        "name": "kg/m2",
        "termUid": "DictionaryTerm_000335"
      },
      "uid": "UnitDefinition_000007",
      "unitDimension": {
        "name": "Body Mass Index",
        "termUid": "C16358_BMI"
      },
      "unitSubsets": [],
      "usConventionalUnit": true,
      "userInitials": "unknown-user",
      "version": "1.0"
    },
    {
      "changeDescription": "Approved version",
      "comment": "0",
      "conversionFactorToMaster": 10.0,
      "convertibleUnit": true,
      "ctUnits": [
        {
          "name": "10^10/L",
          "termUid": "C105517_10^10/L"
        }
      ],
      "definition": "A unit of measurement equal to 10 to the tenth power of entities per unit of volume equal to one liter. (NCI)_x005F_x000D_\n_x005F_x000D_\nCDISC synonyms: 10^4/mm3; 10^4/uL; 10^7/mL",
      "displayUnit": true,
      "endDate": null,
      "legacyCode": "10^4/uL",
      "libraryName": "Sponsor",
      "masterUnit": false,
      "molecularWeightConvExpon": null,
      "name": "10^4/uL",
      "order": 30,
      "siUnit": false,
      "startDate": "2022-07-06T19:27:45.222966",
      "status": "Final",
      "templateParameter": false,
      "ucum": null,
      "uid": "UnitDefinition_000008",
      "unitDimension": {
        "name": "Specified Cell Count Test",
        "termUid": "C174332_CELL COUNT"
      },
      "unitSubsets": [],
      "usConventionalUnit": true,
      "userInitials": "unknown-user",
      "version": "1.0"
    },
    {
      "changeDescription": "Approved version",
      "comment": "0",
      "conversionFactorToMaster": 1000.0,
      "convertibleUnit": true,
      "ctUnits": [
        {
          "name": "10^12/L",
          "termUid": "C67308_10^12/L"
        }
      ],
      "definition": "equal to 10^12/L_x005F_x000D_\n_x005F_x000D_\nCDISC code: C67308_x005F_x000D_\nCDISC submission value: 10^12/L_x005F_x000D_\nCDISC synonym:1/pL",
      "displayUnit": true,
      "endDate": null,
      "legacyCode": "1/pL",
      "libraryName": "Sponsor",
      "masterUnit": false,
      "molecularWeightConvExpon": null,
      "name": "1/pL",
      "order": 30,
      "siUnit": false,
      "startDate": "2022-07-06T19:27:45.358980",
      "status": "Final",
      "templateParameter": false,
      "ucum": null,
      "uid": "UnitDefinition_000009",
      "unitDimension": {
        "name": "Specified Cell Count Test",
        "termUid": "C174332_CELL COUNT"
      },
      "unitSubsets": [],
      "usConventionalUnit": true,
      "userInitials": "unknown-user",
      "version": "1.0"
    },
    {
      "changeDescription": "Approved version",
      "comment": "0",
      "conversionFactorToMaster": 1000.0,
      "convertibleUnit": true,
      "ctUnits": [
        {
          "name": "10^12/L",
          "termUid": "C67308_10^12/L"
        }
      ],
      "definition": "Sponsor defined._x005F_x000D_\n10^9/mL",
      "displayUnit": true,
      "endDate": null,
      "legacyCode": "10^9/mL",
      "libraryName": "Sponsor",
      "masterUnit": false,
      "molecularWeightConvExpon": null,
      "name": "10^9/mL",
      "order": 30,
      "siUnit": false,
      "startDate": "2022-07-06T19:27:45.587738",
      "status": "Final",
      "templateParameter": false,
      "ucum": null,
      "uid": "UnitDefinition_000010",
      "unitDimension": {
        "name": "Specified Cell Count Test",
        "termUid": "C174332_CELL COUNT"
      },
      "unitSubsets": [],
      "usConventionalUnit": true,
      "userInitials": "unknown-user",
      "version": "1.0"
    },
    {
      "changeDescription": "Approved version",
      "comment": "0",
      "conversionFactorToMaster": 1.0,
      "convertibleUnit": true,
      "ctUnits": [
        {
          "name": "10^9/L",
          "termUid": "C67255_10^9/L"
        }
      ],
      "definition": "CDISC code: C67255_x005F_x000D_\nCDISC submission value: 10^9/L_x005F_x000D_\nCDISC synonym: 10^3/uL;10^3/mm3_x005F_x000D_\nCDISC Description: A unit of measurement equal to 10 to the ninth power of the number of entities per unit of volume equal to one liter._x005F_x000D_\nNCI preferred term: Billion per Liter",
      "displayUnit": true,
      "endDate": null,
      "legacyCode": "10^9/L",
      "libraryName": "Sponsor",
      "masterUnit": true,
      "molecularWeightConvExpon": null,
      "name": "10^9/L",
      "order": 30,
      "siUnit": true,
      "startDate": "2022-07-06T19:27:45.818187",
      "status": "Final",
      "templateParameter": false,
      "ucum": null,
      "uid": "UnitDefinition_000011",
      "unitDimension": {
        "name": "Specified Cell Count Test",
        "termUid": "C174332_CELL COUNT"
      },
      "unitSubsets": [],
      "usConventionalUnit": true,
      "userInitials": "unknown-user",
      "version": "1.0"
    },
    {
      "changeDescription": "Approved version",
      "comment": "0",
      "conversionFactorToMaster": 1.0,
      "convertibleUnit": true,
      "ctUnits": [
        {
          "name": "10^9/L",
          "termUid": "C67255_10^9/L"
        }
      ],
      "definition": "CDISC code: C67255_x005F_x000D_\nCDISC submission value: 10^9/L_x005F_x000D_\nCDISC synonym: 1/nL; 10^3/mm3; 10^3/uL; 10^6/mL; G/L; GI/L; Giga per Liter_x005F_x000D_\nCDISC Description: A unit of measurement equal to 10 to the ninth power of the number of entities per unit of volume equal to one liter._x005F_x000D_\nNCI Preferred Term: Billion per Liter",
      "displayUnit": true,
      "endDate": null,
      "legacyCode": "10^6/mL",
      "libraryName": "Sponsor",
      "masterUnit": false,
      "molecularWeightConvExpon": null,
      "name": "10^6/mL",
      "order": 30,
      "siUnit": false,
      "startDate": "2022-07-06T19:27:45.973802",
      "status": "Final",
      "templateParameter": false,
      "ucum": null,
      "uid": "UnitDefinition_000012",
      "unitDimension": {
        "name": "Specified Cell Count Test",
        "termUid": "C174332_CELL COUNT"
      },
      "unitSubsets": [],
      "usConventionalUnit": true,
      "userInitials": "unknown-user",
      "version": "1.0"
    },
    {
      "changeDescription": "Approved version",
      "comment": "0",
      "conversionFactorToMaster": 1.0,
      "convertibleUnit": true,
      "ctUnits": [
        {
          "name": "10^9/L",
          "termUid": "C67255_10^9/L"
        }
      ],
      "definition": "CDISC Submission Value: 10^9/L_x005F_x000D_\nSynonyms: 1/nL; 10^3/mm3; 10^3/uL; 10^6/mL; G/L; GI/L; Giga per Liter_x005F_x000D_\nA unit of measurement equal to 10 to the ninth power of the number of entities per unit of volume equal to one liter.",
      "displayUnit": true,
      "endDate": null,
      "legacyCode": "10^3/mm^3",
      "libraryName": "Sponsor",
      "masterUnit": false,
      "molecularWeightConvExpon": null,
      "name": "10^3/mm^3",
      "order": 30,
      "siUnit": false,
      "startDate": "2022-07-06T19:27:46.200150",
      "status": "Final",
      "templateParameter": false,
      "ucum": null,
      "uid": "UnitDefinition_000013",
      "unitDimension": {
        "name": "Specified Cell Count Test",
        "termUid": "C174332_CELL COUNT"
      },
      "unitSubsets": [],
      "usConventionalUnit": true,
      "userInitials": "unknown-user",
      "version": "1.0"
    },
    {
      "changeDescription": "Approved version",
      "comment": "0",
      "conversionFactorToMaster": 0.001,
      "convertibleUnit": true,
      "ctUnits": [
        {
          "name": "10^6/L",
          "termUid": "C67452_10^6/L"
        }
      ],
      "definition": "10^6 / liter_x005F_x000D_\n",
      "displayUnit": true,
      "endDate": null,
      "legacyCode": "10^6/L",
      "libraryName": "Sponsor",
      "masterUnit": false,
      "molecularWeightConvExpon": null,
      "name": "10^6/L",
      "order": 30,
      "siUnit": false,
      "startDate": "2022-07-06T19:27:46.410212",
      "status": "Final",
      "templateParameter": false,
      "ucum": null,
      "uid": "UnitDefinition_000014",
      "unitDimension": {
        "name": "Specified Cell Count Test",
        "termUid": "C174332_CELL COUNT"
      },
      "unitSubsets": [],
      "usConventionalUnit": true,
      "userInitials": "unknown-user",
      "version": "1.0"
    },
    {
      "changeDescription": "Approved version",
      "comment": "0",
      "conversionFactorToMaster": 1000.0,
      "convertibleUnit": true,
      "ctUnits": [
        {
          "name": "10^12/L",
          "termUid": "C67308_10^12/L"
        }
      ],
      "definition": "Submission Value: 10^12/L\t_x005F_x000D_\nSynonyms: 1/pL; 10^6/mm3; 10^6/uL; T/L; TI/L; Tera/L_x005F_x000D_\nA unit of measurement equal to 10 to the twelfth power of the number of entities per unit of volume equal to one liter._x005F_x000D_\n",
      "displayUnit": true,
      "endDate": null,
      "legacyCode": "10^6/mm^3",
      "libraryName": "Sponsor",
      "masterUnit": false,
      "molecularWeightConvExpon": null,
      "name": "10^6/mm^3",
      "order": 30,
      "siUnit": false,
      "startDate": "2022-07-06T19:27:46.637841",
      "status": "Final",
      "templateParameter": false,
      "ucum": null,
      "uid": "UnitDefinition_000015",
      "unitDimension": {
        "name": "Specified Cell Count Test",
        "termUid": "C174332_CELL COUNT"
      },
      "unitSubsets": [],
      "usConventionalUnit": true,
      "userInitials": "unknown-user",
      "version": "1.0"
    },
    {
      "changeDescription": "Approved version",
      "comment": "0",
      "conversionFactorToMaster": 10.0,
      "convertibleUnit": true,
      "ctUnits": [
        {
          "name": "10^10/L",
          "termUid": "C105517_10^10/L"
        }
      ],
      "definition": "A unit of measurement equal to 10 to the tenth power of entities per unit of volume equal to one liter. (NCI)_x005F_x000D_\nTen Billion Per Liter_x005F_x000D_\nSynonym(s): 10^4/mm3; 10^4/uL; 10^7/mL",
      "displayUnit": true,
      "endDate": null,
      "legacyCode": "10^10/L",
      "libraryName": "Sponsor",
      "masterUnit": false,
      "molecularWeightConvExpon": null,
      "name": "10^10/L",
      "order": 30,
      "siUnit": false,
      "startDate": "2022-07-06T19:27:46.869665",
      "status": "Final",
      "templateParameter": false,
      "ucum": null,
      "uid": "UnitDefinition_000016",
      "unitDimension": {
        "name": "Specified Cell Count Test",
        "termUid": "C174332_CELL COUNT"
      },
      "unitSubsets": [],
      "usConventionalUnit": true,
      "userInitials": "unknown-user",
      "version": "1.0"
    },
    {
      "changeDescription": "Approved version",
      "comment": "0",
      "conversionFactorToMaster": 1.0,
      "convertibleUnit": true,
      "ctUnits": [
        {
          "name": "10^9/L",
          "termUid": "C67255_10^9/L"
        }
      ],
      "definition": "Equal to 10^9/L_x005F_x000D_\nCDISC:Not Found",
      "displayUnit": true,
      "endDate": null,
      "legacyCode": "10^3/uL",
      "libraryName": "Sponsor",
      "masterUnit": false,
      "molecularWeightConvExpon": null,
      "name": "10^3/uL",
      "order": 30,
      "siUnit": false,
      "startDate": "2022-07-06T19:27:47.053884",
      "status": "Final",
      "templateParameter": false,
      "ucum": null,
      "uid": "UnitDefinition_000017",
      "unitDimension": {
        "name": "Specified Cell Count Test",
        "termUid": "C174332_CELL COUNT"
      },
      "unitSubsets": [],
      "usConventionalUnit": true,
      "userInitials": "unknown-user",
      "version": "1.0"
    },
    {
      "changeDescription": "Approved version",
      "comment": "0",
      "conversionFactorToMaster": 1.0,
      "convertibleUnit": true,
      "ctUnits": [
        {
          "name": "10^9/L",
          "termUid": "C67255_10^9/L"
        }
      ],
      "definition": "equal to 10^9/L_x005F_x000D_\nNo CDISC standard for submission value or definition exist_x005F_x000D_\n",
      "displayUnit": true,
      "endDate": null,
      "legacyCode": "1/nL",
      "libraryName": "Sponsor",
      "masterUnit": false,
      "molecularWeightConvExpon": null,
      "name": "1/nL",
      "order": 30,
      "siUnit": false,
      "startDate": "2022-07-06T19:27:47.264138",
      "status": "Final",
      "templateParameter": false,
      "ucum": null,
      "uid": "UnitDefinition_000018",
      "unitDimension": {
        "name": "Specified Cell Count Test",
        "termUid": "C174332_CELL COUNT"
      },
      "unitSubsets": [],
      "usConventionalUnit": true,
      "userInitials": "unknown-user",
      "version": "1.0"
    },
    {
      "changeDescription": "Approved version",
      "comment": "0",
      "conversionFactorToMaster": 1000.0,
      "convertibleUnit": true,
      "ctUnits": [
        {
          "name": "10^12/L",
          "termUid": "C67308_10^12/L"
        }
      ],
      "definition": "Equal to 10^12/L_x005F_x000D_\nCDISC:Not Found",
      "displayUnit": true,
      "endDate": null,
      "legacyCode": "10^6/uL",
      "libraryName": "Sponsor",
      "masterUnit": false,
      "molecularWeightConvExpon": null,
      "name": "10^6/uL",
      "order": 30,
      "siUnit": false,
      "startDate": "2022-07-06T19:27:47.539541",
      "status": "Final",
      "templateParameter": false,
      "ucum": null,
      "uid": "UnitDefinition_000019",
      "unitDimension": {
        "name": "Specified Cell Count Test",
        "termUid": "C174332_CELL COUNT"
      },
      "unitSubsets": [],
      "usConventionalUnit": true,
      "userInitials": "unknown-user",
      "version": "1.0"
    },
    {
      "changeDescription": "Approved version",
      "comment": "0",
      "conversionFactorToMaster": 0.1,
      "convertibleUnit": true,
      "ctUnits": [
        {
          "name": "10^8/L",
          "termUid": "C105489_10^8/L"
        }
      ],
      "definition": "A unit of measurement equal to 10 to the eighth power of entities per unit of volume equal to one liter._x005F_x000D_\n_x005F_x000D_\nCDISC code: 10^8/L_x005F_x000D_\nCDISC synonym: 10^2/uL",
      "displayUnit": true,
      "endDate": null,
      "legacyCode": "10^2/uL",
      "libraryName": "Sponsor",
      "masterUnit": false,
      "molecularWeightConvExpon": null,
      "name": "10^2/uL",
      "order": 30,
      "siUnit": false,
      "startDate": "2022-07-06T19:27:47.669139",
      "status": "Final",
      "templateParameter": false,
      "ucum": null,
      "uid": "UnitDefinition_000020",
      "unitDimension": {
        "name": "Specified Cell Count Test",
        "termUid": "C174332_CELL COUNT"
      },
      "unitSubsets": [],
      "usConventionalUnit": true,
      "userInitials": "unknown-user",
      "version": "1.0"
    },
    {
      "changeDescription": "Approved version",
      "comment": "0",
      "conversionFactorToMaster": 0.001,
      "convertibleUnit": true,
      "ctUnits": [
        {
          "name": "10^6/L",
          "termUid": "C67452_10^6/L"
        }
      ],
      "definition": "equal to 10^6/L_x005F_x000D_\n_x005F_x000D_\nCDISC submission value: 10^6/L_x005F_x000D_\nCDISC synonym: 1/uL",
      "displayUnit": true,
      "endDate": null,
      "legacyCode": "1/uL",
      "libraryName": "Sponsor",
      "masterUnit": false,
      "molecularWeightConvExpon": null,
      "name": "1/uL",
      "order": 30,
      "siUnit": false,
      "startDate": "2022-07-06T19:27:47.774187",
      "status": "Final",
      "templateParameter": false,
      "ucum": null,
      "uid": "UnitDefinition_000021",
      "unitDimension": {
        "name": "Specified Cell Count Test",
        "termUid": "C174332_CELL COUNT"
      },
      "unitSubsets": [],
      "usConventionalUnit": true,
      "userInitials": "unknown-user",
      "version": "1.0"
    },
    {
      "changeDescription": "Approved version",
      "comment": "0",
      "conversionFactorToMaster": 1000.0,
      "convertibleUnit": true,
      "ctUnits": [
        {
          "name": "10^12/L",
          "termUid": "C67308_10^12/L"
        }
      ],
      "definition": "CDISC code: C67308_x005F_x000D_\nCDISC submission value: 10^12/L_x005F_x000D_\nCDISC synonym: 10^6/uL_x005F_x000D_\nCDISC Description: A unit of measurement equal to 10 to the twelfth power of the number of entities per unit of volume equal to one liter._x005F_x000D_\nNCI preferred term: Million per Microliter",
      "displayUnit": true,
      "endDate": null,
      "legacyCode": "10^12/L",
      "libraryName": "Sponsor",
      "masterUnit": false,
      "molecularWeightConvExpon": null,
      "name": "10^12/L",
      "order": 30,
      "siUnit": true,
      "startDate": "2022-07-06T19:27:47.973524",
      "status": "Final",
      "templateParameter": false,
      "ucum": null,
      "uid": "UnitDefinition_000022",
      "unitDimension": {
        "name": "Specified Cell Count Test",
        "termUid": "C174332_CELL COUNT"
      },
      "unitSubsets": [],
      "usConventionalUnit": true,
      "userInitials": "unknown-user",
      "version": "1.0"
    },
    {
      "changeDescription": "Approved version",
      "comment": "0",
      "conversionFactorToMaster": 0.001,
      "convertibleUnit": true,
      "ctUnits": [
        {
          "name": "10^6/L",
          "termUid": "C67452_10^6/L"
        }
      ],
      "definition": "CDISC code: C67254_x005F_x000D_\nCDISC submission value: /uL_x005F_x000D_\nCDISC synonym: Per Microliter_x005F_x000D_\nCDISC definition: A volume unit equal to one microliter used as a denominator to build a derived unit expressed as a ratio. (NCI)_x005F_x000D_\nNCI Preferred Term: Per Microliter",
      "displayUnit": true,
      "endDate": null,
      "legacyCode": "/uL",
      "libraryName": "Sponsor",
      "masterUnit": false,
      "molecularWeightConvExpon": null,
      "name": "/uL",
      "order": 30,
      "siUnit": false,
      "startDate": "2022-07-06T19:27:48.153056",
      "status": "Final",
      "templateParameter": false,
      "ucum": {
        "name": "/uL",
        "termUid": "DictionaryTerm_000767"
      },
      "uid": "UnitDefinition_000023",
      "unitDimension": {
        "name": "Specified Cell Count Test",
        "termUid": "C174332_CELL COUNT"
      },
      "unitSubsets": [],
      "usConventionalUnit": true,
      "userInitials": "unknown-user",
      "version": "1.0"
    },
    {
      "changeDescription": "Approved version",
      "comment": "As units are case sensitive \"/NL\" is not correct ",
      "conversionFactorToMaster": 1.0,
      "convertibleUnit": true,
      "ctUnits": [
        {
          "name": "10^9/L",
          "termUid": "C67255_10^9/L"
        }
      ],
      "definition": "equal to 10^9/L_x005F_x000D_\nNo CDISC standard for submission value or definition exist",
      "displayUnit": true,
      "endDate": null,
      "legacyCode": "/nl",
      "libraryName": "Sponsor",
      "masterUnit": false,
      "molecularWeightConvExpon": null,
      "name": "/nl",
      "order": 30,
      "siUnit": false,
      "startDate": "2022-07-06T19:27:48.371262",
      "status": "Final",
      "templateParameter": false,
      "ucum": null,
      "uid": "UnitDefinition_000024",
      "unitDimension": {
        "name": "Specified Cell Count Test",
        "termUid": "C174332_CELL COUNT"
      },
      "unitSubsets": [],
      "usConventionalUnit": true,
      "userInitials": "unknown-user",
      "version": "1.0"
    },
    {
      "changeDescription": "Approved version",
      "comment": "0",
      "conversionFactorToMaster": 0.01,
      "convertibleUnit": true,
      "ctUnits": [
        {
          "name": "10^7/L",
          "termUid": "C98786_10^7/L"
        }
      ],
      "definition": "A unit of measurement equal to 10 to the seventh power of the number of entities per unit of volume equal to one liter._x005F_x000D_\n_x005F_x000D_\nCDISC code: 10^7/L_x005F_x000D_\nCDISC synonym: 10^6/dL",
      "displayUnit": true,
      "endDate": null,
      "legacyCode": "10^6/dL",
      "libraryName": "Sponsor",
      "masterUnit": false,
      "molecularWeightConvExpon": null,
      "name": "10^6/dL",
      "order": 30,
      "siUnit": false,
      "startDate": "2022-07-06T19:27:48.631166",
      "status": "Final",
      "templateParameter": false,
      "ucum": null,
      "uid": "UnitDefinition_000025",
      "unitDimension": {
        "name": "Specified Cell Count Test",
        "termUid": "C174332_CELL COUNT"
      },
      "unitSubsets": [],
      "usConventionalUnit": true,
      "userInitials": "unknown-user",
      "version": "1.0"
    },
    {
      "changeDescription": "Approved version",
      "comment": "0",
      "conversionFactorToMaster": 0.001,
      "convertibleUnit": true,
      "ctUnits": [
        {
          "name": "10^6/L",
          "termUid": "C67452_10^6/L"
        }
      ],
      "definition": "1/mm^3. mm^3 = 10^-6L_x005F_x000D_\nCDISC:Not Found",
      "displayUnit": true,
      "endDate": null,
      "legacyCode": "1/mm^3",
      "libraryName": "Sponsor",
      "masterUnit": false,
      "molecularWeightConvExpon": null,
      "name": "1/mm^3",
      "order": 30,
      "siUnit": false,
      "startDate": "2022-07-06T19:27:49.318310",
      "status": "Final",
      "templateParameter": false,
      "ucum": null,
      "uid": "UnitDefinition_000026",
      "unitDimension": {
        "name": "Specified Cell Count Test",
        "termUid": "C174332_CELL COUNT"
      },
      "unitSubsets": [],
      "usConventionalUnit": true,
      "userInitials": "unknown-user",
      "version": "1.0"
    },
    {
      "changeDescription": "Approved version",
      "comment": "0",
      "conversionFactorToMaster": 1.0,
      "convertibleUnit": false,
      "ctUnits": [
        {
          "name": "10^6/Ejaculate U",
          "termUid": "C130189_10^6/Ejaculate U"
        }
      ],
      "definition": "10^6/Ejaculate U_x005F_x000D_\n_x005F_x000D_\nUsed for count of total sperm cells in a sample",
      "displayUnit": true,
      "endDate": null,
      "legacyCode": "10^6/Ejaculate U",
      "libraryName": "Sponsor",
      "masterUnit": false,
      "molecularWeightConvExpon": null,
      "name": "10^6/Ejaculate U",
      "order": 1,
      "siUnit": false,
      "startDate": "2022-07-06T19:27:49.546115",
      "status": "Final",
      "templateParameter": false,
      "ucum": null,
      "uid": "UnitDefinition_000027",
      "unitDimension": {
        "name": "Specified Cell Count Test",
        "termUid": "C174332_CELL COUNT"
      },
      "unitSubsets": [],
      "usConventionalUnit": false,
      "userInitials": "unknown-user",
      "version": "1.0"
    },
    {
      "changeDescription": "Approved version",
      "comment": "0",
      "conversionFactorToMaster": 10.0,
      "convertibleUnit": true,
      "ctUnits": [
        {
          "name": "g/dL",
          "termUid": "C64783_g/dL"
        }
      ],
      "definition": "Found this explanation using this link:https://fscimage.fishersci.com/webimages_FSC/downloads/winek.pdf",
      "displayUnit": true,
      "endDate": null,
      "legacyCode": "g%",
      "libraryName": "Sponsor",
      "masterUnit": false,
      "molecularWeightConvExpon": 0,
      "name": "g%",
      "order": 35,
      "siUnit": false,
      "startDate": "2022-07-06T19:27:49.758733",
      "status": "Final",
      "templateParameter": false,
      "ucum": null,
      "uid": "UnitDefinition_000028",
      "unitDimension": {
        "name": "Concentration",
        "termUid": "CTTerm_000251"
      },
      "unitSubsets": [],
      "usConventionalUnit": true,
      "userInitials": "unknown-user",
      "version": "1.0"
    },
    {
      "changeDescription": "Approved version",
      "comment": "0",
      "conversionFactorToMaster": 1e-06,
      "convertibleUnit": true,
      "ctUnits": [
        {
          "name": "Microgram per Liter",
          "termUid": "C67306_ng/mL"
        },
        {
          "name": "ug/L",
          "termUid": "C67306_ug/L"
        }
      ],
      "definition": "ng/mL : nanogram / milliliter is a CDISC synonym for ug/L_x005F_x000D_\nA unit of mass concentration defined as the concentration of one microgram of a substance per unit volume of the mixture equal to one liter. The concept also refers to the unit of mass density (volumic mass) defined as the density of substance which mass equal to one microgram occupies the volume one liter.(NCI)",
      "displayUnit": true,
      "endDate": null,
      "legacyCode": "ng/mL",
      "libraryName": "Sponsor",
      "masterUnit": false,
      "molecularWeightConvExpon": 0,
      "name": "ng/mL",
      "order": 35,
      "siUnit": false,
      "startDate": "2022-07-06T19:27:50.026198",
      "status": "Final",
      "templateParameter": false,
      "ucum": {
        "name": "ng/mL",
        "termUid": "DictionaryTerm_000661"
      },
      "uid": "UnitDefinition_000029",
      "unitDimension": {
        "name": "Concentration",
        "termUid": "CTTerm_000251"
      },
      "unitSubsets": [],
      "usConventionalUnit": true,
      "userInitials": "unknown-user",
      "version": "1.0"
    },
    {
      "changeDescription": "Approved version",
      "comment": "0",
      "conversionFactorToMaster": 1e-09,
      "convertibleUnit": true,
      "ctUnits": [
        {
          "name": "Nanogram per Liter",
          "termUid": "C67327_pg/mL"
        },
        {
          "name": "ng/L",
          "termUid": "C67327_ng/L"
        }
      ],
      "definition": "CDISC code: C67327_x005F_x000D_\nCDISC submission value: ng/L_x005F_x000D_\nCDISC synonym: ug/m3; Microgram per Cubic Meter; ng/L; pg/mL_x005F_x000D_\nCDISC Description: A unit of mass concentration defined as the concentration of one nanogram of a substance per one liter of the mixture, or one picogram of a substance in unit volume of the mixture equal to one milliliter, or one microgram of a substance per one cubic meter of the mixture. The concept also refers to the metric unit of mass density (volumic mass) defined as the density of substance which mass equal to one nanogram occupies the volume one liter.(NCI)_x005F_x000D_\nNCI preferred term: Nanogram per Liter",
      "displayUnit": true,
      "endDate": null,
      "legacyCode": "ng/L",
      "libraryName": "Sponsor",
      "masterUnit": false,
      "molecularWeightConvExpon": 0,
      "name": "ng/L",
      "order": 35,
      "siUnit": true,
      "startDate": "2022-07-06T19:27:50.308015",
      "status": "Final",
      "templateParameter": false,
      "ucum": {
        "name": "ng/L",
        "termUid": "DictionaryTerm_000652"
      },
      "uid": "UnitDefinition_000030",
      "unitDimension": {
        "name": "Concentration",
        "termUid": "CTTerm_000251"
      },
      "unitSubsets": [],
      "usConventionalUnit": true,
      "userInitials": "unknown-user",
      "version": "1.0"
    },
    {
      "changeDescription": "Approved version",
      "comment": "0",
      "conversionFactorToMaster": 1000.0,
      "convertibleUnit": true,
      "ctUnits": [
        {
          "name": "Kilogram per Liter",
          "termUid": "C64566_g/mL"
        },
        {
          "name": "kg/L",
          "termUid": "C64566_kg/L"
        }
      ],
      "definition": "SDTM Terminology 2017-06-30_x005F_x000D_\nCode:C64566_x005F_x000D_\nCDISC Code Value:  _x005F_x000D_\nCDISC Value Label: kg/L       _x005F_x000D_\nCDISC synonym(s): Gram per Milliliter; Kilogram per Liter; g/mL; gram/mL; kg/L; mg/uL_x005F_x000D_\nCDISC definition: _x005F_x000D_\nA unit of concentration or mass density equal to one gram of substance per milliliter of solution or one kilogram of substance per l_x005F_x000D_\niter of solution._x005F_x000D_\nNCI preferred term: Kilogram per Liter_x005F_x000D_\n",
      "displayUnit": true,
      "endDate": null,
      "legacyCode": "kg/L",
      "libraryName": "Sponsor",
      "masterUnit": false,
      "molecularWeightConvExpon": 0,
      "name": "kg/L",
      "order": 35,
      "siUnit": false,
      "startDate": "2022-07-06T19:27:50.597039",
      "status": "Final",
      "templateParameter": false,
      "ucum": {
        "name": "kg/L",
        "termUid": "DictionaryTerm_000330"
      },
      "uid": "UnitDefinition_000031",
      "unitDimension": {
        "name": "Concentration",
        "termUid": "CTTerm_000251"
      },
      "unitSubsets": [],
      "usConventionalUnit": true,
      "userInitials": "unknown-user",
      "version": "1.0"
    },
    {
      "changeDescription": "Approved version",
      "comment": "0",
      "conversionFactorToMaster": 0.001,
      "convertibleUnit": true,
      "ctUnits": [
        {
          "name": "Microgram per Milliliter",
          "termUid": "C64572_ug/mL"
        },
        {
          "name": "mg/L",
          "termUid": "C64572_mg/L"
        }
      ],
      "definition": "<CodeLists>_x005F_x000D_\n<CodeList Value=\"PKUNIT\"></CodeList>_x005F_x000D_\n<CodeList Value=\"UNIT\" CodeSubmValue=\"ug/mL\"></CodeList>_x005F_x000D_\n</CodeLists>_x005F_x000D_\nCDISC submission value:ug/mL (in PKUNIT) / mg/L (in UNIT)_x005F_x000D_\nCDISC synonym:Gram per Cubic Meter; ug/mL; Microgram per Milliliter; mg/L; Milligram per Liter_x005F_x000D_\nCDSIC code:C64572_x005F_x000D_\nCDISC definition:A unit of mass concentration equal to the concentration of one gram of a substance per unit volume of the mixture equal to one cubic meter. The concept also refers to the metric unit of mass density (volumic mass) defined as the density of substance which mass equal to one gram occupies the volume one cubic meter.(NCI)",
      "displayUnit": true,
      "endDate": null,
      "legacyCode": "ug/mL",
      "libraryName": "Sponsor",
      "masterUnit": false,
      "molecularWeightConvExpon": 0,
      "name": "ug/mL",
      "order": 35,
      "siUnit": false,
      "startDate": "2022-07-06T19:27:50.862518",
      "status": "Final",
      "templateParameter": false,
      "ucum": {
        "name": "ug/mL",
        "termUid": "DictionaryTerm_000406"
      },
      "uid": "UnitDefinition_000032",
      "unitDimension": {
        "name": "Concentration",
        "termUid": "CTTerm_000251"
      },
      "unitSubsets": [],
      "usConventionalUnit": true,
      "userInitials": "unknown-user",
      "version": "1.0"
    },
    {
      "changeDescription": "Approved version",
      "comment": "0",
      "conversionFactorToMaster": 1.0,
      "convertibleUnit": true,
      "ctUnits": [
        {
          "name": "mol/L",
          "termUid": "C48555_mol/L"
        }
      ],
      "definition": "CDISC code: C48555_x005F_x000D_\nCDISC submission value: mol/L_x005F_x000D_\nCDISC synonym: Mole per Liter; mol/L; mmol/mL_x005F_x000D_\nCDISC Description: A unit of concentration (molarity unit) equal to one mole of solute in one liter of solution.(NCI)_x005F_x000D_\nNCI preferred term: Mole per Liter",
      "displayUnit": true,
      "endDate": null,
      "legacyCode": "mol/L",
      "libraryName": "Sponsor",
      "masterUnit": true,
      "molecularWeightConvExpon": 1,
      "name": "mol/L",
      "order": 35,
      "siUnit": false,
      "startDate": "2022-07-06T19:27:51.153748",
      "status": "Final",
      "templateParameter": false,
      "ucum": {
        "name": "mol/L",
        "termUid": "DictionaryTerm_000627"
      },
      "uid": "UnitDefinition_000033",
      "unitDimension": {
        "name": "Concentration",
        "termUid": "CTTerm_000251"
      },
      "unitSubsets": [],
      "usConventionalUnit": true,
      "userInitials": "unknown-user",
      "version": "1.0"
    },
    {
      "changeDescription": "Approved version",
      "comment": "0",
      "conversionFactorToMaster": 1.0,
      "convertibleUnit": true,
      "ctUnits": [
        {
          "name": "Kilogram per Cubic Meter",
          "termUid": "C42576_mg/mL"
        },
        {
          "name": "g/L",
          "termUid": "C42576_g/L"
        }
      ],
      "definition": "CDISC code: C42576_x005F_x000D_\nCDISC submission value: g/L_x005F_x000D_\nCDISC synonym: g/L; Gram per Liter; kg/m3; Kilogram per Cubic Metre; Microgram per Microliter; Milligram per Milliliter; ug/uL; mg/mL_x005F_x000D_\nCDISC Description: A unit of mass concentration defined as the concentration of one kilogram of a substance per unit volume of the mixture equal to one cubic meter, or the concentration of one milligram of a substance per unit volume of the mixture equal to one milliliter, or one gram of a substance per one liter of the mixture. It is also a unit of mass density (volumic mass) defined as the density of substance which mass equal to one milligram occupies the volume one milliliter.(NCI)_x005F_x000D_\nNCI preferred term: Kilogram per Cubic Meter",
      "displayUnit": true,
      "endDate": null,
      "legacyCode": "g/L",
      "libraryName": "Sponsor",
      "masterUnit": false,
      "molecularWeightConvExpon": 0,
      "name": "g/L",
      "order": 35,
      "siUnit": true,
      "startDate": "2022-07-06T19:27:51.403688",
      "status": "Final",
      "templateParameter": false,
      "ucum": {
        "name": "g/L",
        "termUid": "DictionaryTerm_000249"
      },
      "uid": "UnitDefinition_000034",
      "unitDimension": {
        "name": "Concentration",
        "termUid": "CTTerm_000251"
      },
      "unitSubsets": [],
      "usConventionalUnit": true,
      "userInitials": "unknown-user",
      "version": "1.0"
    },
    {
      "changeDescription": "Approved version",
      "comment": "0",
      "conversionFactorToMaster": 0.001,
      "convertibleUnit": true,
      "ctUnits": [
        {
          "name": "mmol/L",
          "termUid": "C64387_mmol/L"
        }
      ],
      "definition": "CDISC code: C64387_x005F_x000D_\nCDISC submission value: mmol/L_x005F_x000D_\nCDISC synonym: Millimole per Liter; umol/mL; Micromole per Milliliter; mol/m3; Mole per Cubic Meter; mcmol/mL; mmol/L; nmol/uL_x005F_x000D_\nCDISC Description: A unit of concentration (molarity unit) equal to one thousandth of a mole (10E-3 mole) of solute per one liter of solution.(NCI)_x005F_x000D_\nNCI preferred term: Millimole per Liter",
      "displayUnit": true,
      "endDate": null,
      "legacyCode": "mmol/L",
      "libraryName": "Sponsor",
      "masterUnit": false,
      "molecularWeightConvExpon": 1,
      "name": "mmol/L",
      "order": 35,
      "siUnit": true,
      "startDate": "2022-07-06T19:27:51.631351",
      "status": "Final",
      "templateParameter": false,
      "ucum": {
        "name": "mmol/L",
        "termUid": "DictionaryTerm_000590"
      },
      "uid": "UnitDefinition_000035",
      "unitDimension": {
        "name": "Concentration",
        "termUid": "CTTerm_000251"
      },
      "unitSubsets": [],
      "usConventionalUnit": true,
      "userInitials": "unknown-user",
      "version": "1.0"
    },
    {
      "changeDescription": "Approved version",
      "comment": "0",
      "conversionFactorToMaster": 1e-09,
      "convertibleUnit": true,
      "ctUnits": [
        {
          "name": "nmol/L",
          "termUid": "C67432_nmol/L"
        }
      ],
      "definition": "CDISC code: C67432_x005F_x000D_\nCDISC submission value: nmol/L_x005F_x000D_\nCDISC synonym: Nanomole per Liter_x005F_x000D_\nCDISC Description: A unit of concentration (molarity unit) equal to one billionth of a mole (10E-9 mole) of solute in one liter of solution.(NCI)_x005F_x000D_\nNCI preferred term: Nanomole per Liter",
      "displayUnit": true,
      "endDate": null,
      "legacyCode": "nmol/L",
      "libraryName": "Sponsor",
      "masterUnit": false,
      "molecularWeightConvExpon": 1,
      "name": "nmol/L",
      "order": 35,
      "siUnit": true,
      "startDate": "2022-07-06T19:27:51.921423",
      "status": "Final",
      "templateParameter": false,
      "ucum": {
        "name": "nmol/L",
        "termUid": "DictionaryTerm_000685"
      },
      "uid": "UnitDefinition_000036",
      "unitDimension": {
        "name": "Concentration",
        "termUid": "CTTerm_000251"
      },
      "unitSubsets": [],
      "usConventionalUnit": true,
      "userInitials": "unknown-user",
      "version": "1.0"
    },
    {
      "changeDescription": "Approved version",
      "comment": "0",
      "conversionFactorToMaster": 1e-06,
      "convertibleUnit": true,
      "ctUnits": [
        {
          "name": "Microgram per Liter",
          "termUid": "C67306_ng/mL"
        },
        {
          "name": "ug/L",
          "termUid": "C67306_ug/L"
        }
      ],
      "definition": "CDISC code: C67306_x005F_x000D_\nCDISC submission value: ug/L_x005F_x000D_\nCDISC synonym: mg/m3; Microgram per Liter; Milligram per Cubic Meter; Nanogram per Milliliter; ug/L; ng/mL; mcg/L_x005F_x000D_\nCDISC Description: A unit of mass concentration defined as the concentration of one microgram of a substance per unit volume of the mixture equal to one liter. The concept also refers to the unit of mass density (volumic mass) defined as the density of substance which mass equal to one microgram occupies the volume one liter.(NCI)_x005F_x000D_\nNCI preferred term: Microgram per Liter",
      "displayUnit": true,
      "endDate": null,
      "legacyCode": "ug/L",
      "libraryName": "Sponsor",
      "masterUnit": false,
      "molecularWeightConvExpon": 0,
      "name": "ug/L",
      "order": 35,
      "siUnit": true,
      "startDate": "2022-07-06T19:27:52.183269",
      "status": "Final",
      "templateParameter": false,
      "ucum": {
        "name": "ug/L",
        "termUid": "DictionaryTerm_000401"
      },
      "uid": "UnitDefinition_000037",
      "unitDimension": {
        "name": "Concentration",
        "termUid": "CTTerm_000251"
      },
      "unitSubsets": [],
      "usConventionalUnit": true,
      "userInitials": "unknown-user",
      "version": "1.0"
    },
    {
      "changeDescription": "Approved version",
      "comment": "In its current use NN defines mcg=ug as confirmed by CHHE. But UCUM defines it as mcg/L= millicentigram/Liters. There is a factor 10 difference. This means that mcg/L is defined as and linked to ng/mL (ug/L). ",
      "conversionFactorToMaster": 1e-06,
      "convertibleUnit": true,
      "ctUnits": [
        {
          "name": "Microgram per Liter",
          "termUid": "C67306_ng/mL"
        },
        {
          "name": "ug/L",
          "termUid": "C67306_ug/L"
        }
      ],
      "definition": "Micrograms per liter.",
      "displayUnit": true,
      "endDate": null,
      "legacyCode": "mcg/L",
      "libraryName": "Sponsor",
      "masterUnit": false,
      "molecularWeightConvExpon": 0,
      "name": "mcg/L",
      "order": 1,
      "siUnit": false,
      "startDate": "2022-07-06T19:27:52.473402",
      "status": "Final",
      "templateParameter": false,
      "ucum": null,
      "uid": "UnitDefinition_000038",
      "unitDimension": {
        "name": "Concentration",
        "termUid": "CTTerm_000251"
      },
      "unitSubsets": [],
      "usConventionalUnit": true,
      "userInitials": "unknown-user",
      "version": "1.0"
    },
    {
      "changeDescription": "Approved version",
      "comment": "0",
      "conversionFactorToMaster": 0.001,
      "convertibleUnit": true,
      "ctUnits": [
        {
          "name": "mmol/L",
          "termUid": "C64387_mmol/L"
        }
      ],
      "definition": "CDISC Value found_x005F_x000D_\nCDISC Code: C64387_x005F_x000D_\nCDISC Submission Value: mmol/L_x005F_x000D_\nCDISC Synonym(s): umol/mL_x005F_x000D_\nCDISC Definition: A unit of concentration (molarity unit) equal to one millimole of solute per liter of solution._x005F_x000D_\nNCI Preferred Term: Millimole per Liter _x005F_x000D_\nSponser defined. _x005F_x000D_\nmicromol / milliliter",
      "displayUnit": true,
      "endDate": null,
      "legacyCode": "umol/mL",
      "libraryName": "Sponsor",
      "masterUnit": false,
      "molecularWeightConvExpon": 1,
      "name": "umol/mL",
      "order": 35,
      "siUnit": false,
      "startDate": "2022-07-06T19:27:52.762414",
      "status": "Final",
      "templateParameter": false,
      "ucum": {
        "name": "umol/mL",
        "termUid": "DictionaryTerm_000443"
      },
      "uid": "UnitDefinition_000039",
      "unitDimension": {
        "name": "Concentration",
        "termUid": "CTTerm_000251"
      },
      "unitSubsets": [],
      "usConventionalUnit": true,
      "userInitials": "unknown-user",
      "version": "1.0"
    },
    {
      "changeDescription": "Approved version",
      "comment": "0",
      "conversionFactorToMaster": 1000.0,
      "convertibleUnit": true,
      "ctUnits": [
        {
          "name": "Kilogram per Liter",
          "termUid": "C64566_g/mL"
        },
        {
          "name": "kg/L",
          "termUid": "C64566_kg/L"
        }
      ],
      "definition": "CDISC code:C64566_x005F_x000D_\nCDISC submission value:g/mL_x005F_x000D_\nCDISC synonym:Gram per Milliliter; Kilogram per Liter; g/mL; gram/mL; kg/L; mg/uL_x005F_x000D_\nCDISC definition:A unit of mass concentration defined as the concentration of one kilogram of a substance in unit volume of the mixture equal to one liter. The concept also refers to the unit of mass density (volumic mass) defined as the density of substance which mass equal to one kilogram occupies the volume one liter.(NCI)_x005F_x000D_\nNCI preferred term: Kilogram per Liter",
      "displayUnit": true,
      "endDate": null,
      "legacyCode": "g/mL",
      "libraryName": "Sponsor",
      "masterUnit": false,
      "molecularWeightConvExpon": 0,
      "name": "g/mL",
      "order": 35,
      "siUnit": false,
      "startDate": "2022-07-06T19:27:53.104641",
      "status": "Final",
      "templateParameter": false,
      "ucum": {
        "name": "g/mL",
        "termUid": "DictionaryTerm_000251"
      },
      "uid": "UnitDefinition_000040",
      "unitDimension": {
        "name": "Concentration",
        "termUid": "CTTerm_000251"
      },
      "unitSubsets": [],
      "usConventionalUnit": true,
      "userInitials": "unknown-user",
      "version": "1.0"
    },
    {
      "changeDescription": "Approved version",
      "comment": "0",
      "conversionFactorToMaster": 1e-11,
      "convertibleUnit": true,
      "ctUnits": [
        {
          "name": "pg/dL",
          "termUid": "C67331_pg/dL"
        }
      ],
      "definition": "CDISC code: C67331_x005F_x000D_\nCDISC submission value: pg/dL_x005F_x000D_\nCDISC synonym(s): Picogram per Deciliter_x005F_x000D_\nCDISC definition: Picograms per deciliter._x005F_x000D_\nNCI preferred term: pg/dL_x005F_x000D_\n",
      "displayUnit": true,
      "endDate": null,
      "legacyCode": "pg/dL",
      "libraryName": "Sponsor",
      "masterUnit": false,
      "molecularWeightConvExpon": 0,
      "name": "pg/dL",
      "order": 35,
      "siUnit": false,
      "startDate": "2022-07-06T19:27:53.380325",
      "status": "Final",
      "templateParameter": false,
      "ucum": {
        "name": "pg/dL",
        "termUid": "DictionaryTerm_000831"
      },
      "uid": "UnitDefinition_000041",
      "unitDimension": {
        "name": "Concentration",
        "termUid": "CTTerm_000251"
      },
      "unitSubsets": [],
      "usConventionalUnit": true,
      "userInitials": "unknown-user",
      "version": "1.0"
    },
    {
      "changeDescription": "Approved version",
      "comment": "0",
      "conversionFactorToMaster": 1e-09,
      "convertibleUnit": true,
      "ctUnits": [
        {
          "name": "Nanogram per Liter",
          "termUid": "C67327_pg/mL"
        },
        {
          "name": "ng/L",
          "termUid": "C67327_ng/L"
        }
      ],
      "definition": "pg/mL : picogram / milliliter_x005F_x000D_\nCDISC not found",
      "displayUnit": true,
      "endDate": null,
      "legacyCode": "pg/mL",
      "libraryName": "Sponsor",
      "masterUnit": false,
      "molecularWeightConvExpon": 0,
      "name": "pg/mL",
      "order": 35,
      "siUnit": false,
      "startDate": "2022-07-06T19:27:54.179773",
      "status": "Final",
      "templateParameter": false,
      "ucum": {
        "name": "pg/mL",
        "termUid": "DictionaryTerm_000835"
      },
      "uid": "UnitDefinition_000044",
      "unitDimension": {
        "name": "Concentration",
        "termUid": "CTTerm_000251"
      },
      "unitSubsets": [],
      "usConventionalUnit": true,
      "userInitials": "unknown-user",
      "version": "1.0"
    },
    {
      "changeDescription": "Approved version",
      "comment": "0",
      "conversionFactorToMaster": 0.001,
      "convertibleUnit": true,
      "ctUnits": [
        {
          "name": "Microgram per Milliliter",
          "termUid": "C64572_ug/mL"
        },
        {
          "name": "mg/L",
          "termUid": "C64572_mg/L"
        }
      ],
      "definition": "CDISC code: C64572_x005F_x000D_\nCDISC submission value: mg/L_x005F_x000D_\nCDISC synonym: g/m3; Gram per Cubic Meter; mg/L; Microgram per Milliliter; Milligram per Liter; mcg/mL; ng/uL; ug/mL_x005F_x000D_\nCDISC Description: A unit of mass concentration equal to the concentration of one gram of a substance per unit volume of the mixture equal to one cubic meter. The concept also refers to the metric unit of mass density (volumic mass) defined as the density of substance which mass equal to one gram occupies the volume one cubic meter.(NCI)_x005F_x000D_\nNCI preferred term: Microgram per Milliliter",
      "displayUnit": true,
      "endDate": null,
      "legacyCode": "mg/L",
      "libraryName": "Sponsor",
      "masterUnit": false,
      "molecularWeightConvExpon": 0,
      "name": "mg/L",
      "order": 35,
      "siUnit": true,
      "startDate": "2022-07-06T19:27:54.476717",
      "status": "Final",
      "templateParameter": false,
      "ucum": {
        "name": "mg/L",
        "termUid": "DictionaryTerm_000521"
      },
      "uid": "UnitDefinition_000045",
      "unitDimension": {
        "name": "Concentration",
        "termUid": "CTTerm_000251"
      },
      "unitSubsets": [],
      "usConventionalUnit": true,
      "userInitials": "unknown-user",
      "version": "1.0"
    },
    {
      "changeDescription": "Approved version",
      "comment": "0",
      "conversionFactorToMaster": 1e-08,
      "convertibleUnit": true,
      "ctUnits": [
        {
          "name": "ng/dL",
          "termUid": "C67326_ng/dL"
        }
      ],
      "definition": "CDISC code: C67326_x005F_x000D_\nCDISC submission value: ng/dL_x005F_x000D_\nCDISC synonym: Nanogram per Deciliter_x005F_x000D_\nCDISC Description: A unit of mass concentration defined as the concentration of one nanogram of a substance in unit volume of the mixture equal to one deciliter. The concept also refers to the unit of mass density (volumic mass) defined as the density of substance which mass equal to one nanogram occupies the volume one deciliter.(NCI)_x005F_x000D_\nNCI preferred term: Nanogram per Deciliter",
      "displayUnit": true,
      "endDate": null,
      "legacyCode": "ng/dL",
      "libraryName": "Sponsor",
      "masterUnit": false,
      "molecularWeightConvExpon": 0,
      "name": "ng/dL",
      "order": 35,
      "siUnit": false,
      "startDate": "2022-07-06T19:27:54.742544",
      "status": "Final",
      "templateParameter": false,
      "ucum": {
        "name": "ng/dL",
        "termUid": "DictionaryTerm_000643"
      },
      "uid": "UnitDefinition_000046",
      "unitDimension": {
        "name": "Concentration",
        "termUid": "CTTerm_000251"
      },
      "unitSubsets": [],
      "usConventionalUnit": true,
      "userInitials": "unknown-user",
      "version": "1.0"
    },
    {
      "changeDescription": "Approved version",
      "comment": "0",
      "conversionFactorToMaster": 10.0,
      "convertibleUnit": true,
      "ctUnits": [
        {
          "name": "g/dL",
          "termUid": "C64783_g/dL"
        }
      ],
      "definition": "CDISC code: C64783_x005F_x000D_\nCDISC submission value: g/dL_x005F_x000D_\nCDISC synonym: Gram per Deciliter; g%_x005F_x000D_\nCDISC Description: A unit of mass concentration defined as the concentration of one gram of a substance per unit volume of the mixture equal to one deciliter (100 milliliters). The concept also refers to the metric unit of mass density (volumic mass) defined as the density of substance which mass equal to one gram occupies the volume one deciliter.(NCI)_x005F_x000D_\nNCI preferred term: Gram per Deciliter",
      "displayUnit": true,
      "endDate": null,
      "legacyCode": "g/dL",
      "libraryName": "Sponsor",
      "masterUnit": false,
      "molecularWeightConvExpon": 0,
      "name": "g/dL",
      "order": 35,
      "siUnit": false,
      "startDate": "2022-07-06T19:27:55.058939",
      "status": "Final",
      "templateParameter": false,
      "ucum": {
        "name": "g/dL",
        "termUid": "DictionaryTerm_000237"
      },
      "uid": "UnitDefinition_000047",
      "unitDimension": {
        "name": "Concentration",
        "termUid": "CTTerm_000251"
      },
      "unitSubsets": [],
      "usConventionalUnit": true,
      "userInitials": "unknown-user",
      "version": "1.0"
    },
    {
      "changeDescription": "Approved version",
      "comment": "0",
      "conversionFactorToMaster": 0.001,
      "convertibleUnit": true,
      "ctUnits": [
        {
          "name": "mEq/L",
          "termUid": "C67474_mEq/L"
        }
      ],
      "definition": "CDISC code: C67474_x005F_x000D_\nCDISC submission value: mEq/L_x005F_x000D_\nCDISC synonym: Milliequivalent Per Liter; mval/L; Millivalent per Liter_x005F_x000D_\nCDISC Description: A concentration unit measured as a number of milliequivalents of solute per liter of solution.(NCI)_x005F_x000D_\nNCI preferred term: Milliequivalent per Liter",
      "displayUnit": true,
      "endDate": null,
      "legacyCode": "mEq/L",
      "libraryName": "Sponsor",
      "masterUnit": false,
      "molecularWeightConvExpon": 1,
      "name": "mEq/L",
      "order": 35,
      "siUnit": false,
      "startDate": "2022-07-06T19:27:55.336796",
      "status": "Final",
      "templateParameter": false,
      "ucum": {
        "name": "meq/L",
        "termUid": "DictionaryTerm_000488"
      },
      "uid": "UnitDefinition_000048",
      "unitDimension": {
        "name": "Concentration",
        "termUid": "CTTerm_000251"
      },
      "unitSubsets": [],
      "usConventionalUnit": true,
      "userInitials": "unknown-user",
      "version": "1.0"
    },
    {
      "changeDescription": "Approved version",
      "comment": "0",
      "conversionFactorToMaster": 1e-12,
      "convertibleUnit": true,
      "ctUnits": [
        {
          "name": "pmol/L",
          "termUid": "C67434_pmol/L"
        }
      ],
      "definition": "CDISC code: C67434_x005F_x000D_\nCDISC submission value: pmol/L_x005F_x000D_\nCDISC synonym: Picomole per Liter; fmol/mL; Femtomole per Milliliter_x005F_x000D_\nCDISC Description: A unit of concentration (molarity unit) equal to one trillionth of a mole (10E-12 mole) in one liter of solution.(NCI)_x005F_x000D_\nNCI preferred term: Picomole per Liter",
      "displayUnit": true,
      "endDate": null,
      "legacyCode": "pmol/L",
      "libraryName": "Sponsor",
      "masterUnit": false,
      "molecularWeightConvExpon": 1,
      "name": "pmol/L",
      "order": 35,
      "siUnit": true,
      "startDate": "2022-07-06T19:27:55.532653",
      "status": "Final",
      "templateParameter": false,
      "ucum": {
        "name": "pmol/L",
        "termUid": "DictionaryTerm_000850"
      },
      "uid": "UnitDefinition_000049",
      "unitDimension": {
        "name": "Concentration",
        "termUid": "CTTerm_000251"
      },
      "unitSubsets": [],
      "usConventionalUnit": true,
      "userInitials": "unknown-user",
      "version": "1.0"
    },
    {
      "changeDescription": "Approved version",
      "comment": "0",
      "conversionFactorToMaster": 0.0,
      "convertibleUnit": false,
      "ctUnits": [
        {
          "name": "copies/uL",
          "termUid": "C116237_copies/uL"
        }
      ],
      "definition": "CDISC Submission Value: copies/uL_x005F_x000D_\nCode: C116237_x005F_x000D_\nCDISC Definition: A unit of concentration expressed as a number of copies per unit volume equal to one microliter._x005F_x000D_\nNCI Preferred Term: Copies per Microliter",
      "displayUnit": true,
      "endDate": null,
      "legacyCode": "copies/uL",
      "libraryName": "Sponsor",
      "masterUnit": false,
      "molecularWeightConvExpon": 0,
      "name": "copies/uL",
      "order": 1,
      "siUnit": false,
      "startDate": "2022-07-06T19:27:55.806491",
      "status": "Final",
      "templateParameter": false,
      "ucum": {
        "name": "/uL",
        "termUid": "DictionaryTerm_000767"
      },
      "uid": "UnitDefinition_000050",
      "unitDimension": {
        "name": "Concentration",
        "termUid": "CTTerm_000251"
      },
      "unitSubsets": [],
      "usConventionalUnit": false,
      "userInitials": "unknown-user",
      "version": "1.0"
    },
    {
      "changeDescription": "Approved version",
      "comment": "0",
      "conversionFactorToMaster": 1e-06,
      "convertibleUnit": true,
      "ctUnits": [
        {
          "name": "Microgram Equivalent per Liter",
          "termUid": "C122230_ngEq/mL"
        },
        {
          "name": "ugEq/L",
          "termUid": "C122230_ugEq/L"
        }
      ],
      "definition": "Microequivalent of solute per liter of solution. CDISC not found.\n",
      "displayUnit": true,
      "endDate": null,
      "legacyCode": "uEq/L",
      "libraryName": "Sponsor",
      "masterUnit": false,
      "molecularWeightConvExpon": 1,
      "name": "uEq/L",
      "order": 35,
      "siUnit": false,
      "startDate": "2022-07-06T19:27:56.040628",
      "status": "Final",
      "templateParameter": false,
      "ucum": {
        "name": "ueq/L",
        "termUid": "DictionaryTerm_000376"
      },
      "uid": "UnitDefinition_000051",
      "unitDimension": {
        "name": "Concentration",
        "termUid": "CTTerm_000251"
      },
      "unitSubsets": [],
      "usConventionalUnit": true,
      "userInitials": "unknown-user",
      "version": "1.0"
    },
    {
      "changeDescription": "Approved version",
      "comment": "0",
      "conversionFactorToMaster": 0.01,
      "convertibleUnit": true,
      "ctUnits": [
        {
          "name": "mg/dL",
          "termUid": "C67015_mg/dL"
        }
      ],
      "definition": "CDISC code: C67015_x005F_x000D_\nCDISC submission value: mg/dL_x005F_x000D_\nCDISC synonym: Milligram per Deciliter; mg%_x005F_x000D_\nCDISC Description: A unit of mass concentration defined as the concentration of one milligram of a substance in unit volume of the mixture equal to one cubic deciliter or 100 cubic centimeters. It is also a unit of mass density (volumic mass) defined as the density of substance which mass equal to one milligram occupies the volume one cubic deciliter or 100 cubic centimeters.(NCI)_x005F_x000D_\nNCI preferred term: Milligram per Deciliter",
      "displayUnit": true,
      "endDate": null,
      "legacyCode": "mg/dL",
      "libraryName": "Sponsor",
      "masterUnit": false,
      "molecularWeightConvExpon": 0,
      "name": "mg/dL",
      "order": 35,
      "siUnit": false,
      "startDate": "2022-07-06T19:27:56.193166",
      "status": "Final",
      "templateParameter": false,
      "ucum": {
        "name": "mg/dL",
        "termUid": "DictionaryTerm_000507"
      },
      "uid": "UnitDefinition_000052",
      "unitDimension": {
        "name": "Concentration",
        "termUid": "CTTerm_000251"
      },
      "unitSubsets": [],
      "usConventionalUnit": true,
      "userInitials": "unknown-user",
      "version": "1.0"
    },
    {
      "changeDescription": "Approved version",
      "comment": "0",
      "conversionFactorToMaster": 1e-05,
      "convertibleUnit": true,
      "ctUnits": [
        {
          "name": "ug/dL",
          "termUid": "C67305_ug/dL"
        }
      ],
      "definition": "CDISC code: C67305_x005F_x000D_\nCDISC submission value: ug/dL_x005F_x000D_\nCDISC synonym: Microgram per Deciliter_x005F_x000D_\nCDISC Description: A unit of mass concentration defined as the concentration of one microgram of a substance per unit volume of the mixture equal to one deciliter. The concept also refers to the unit of mass density (volumic mass) defined as the density of substance which mass equal to one microgram occupies the volume one deciliter. (NCI)_x005F_x000D_\nNCI preferred term: ug/dL",
      "displayUnit": true,
      "endDate": null,
      "legacyCode": "ug/dL",
      "libraryName": "Sponsor",
      "masterUnit": false,
      "molecularWeightConvExpon": 0,
      "name": "ug/dL",
      "order": 35,
      "siUnit": false,
      "startDate": "2022-07-06T19:27:56.569917",
      "status": "Final",
      "templateParameter": false,
      "ucum": {
        "name": "ug/dL",
        "termUid": "DictionaryTerm_000386"
      },
      "uid": "UnitDefinition_000053",
      "unitDimension": {
        "name": "Concentration",
        "termUid": "CTTerm_000251"
      },
      "unitSubsets": [],
      "usConventionalUnit": true,
      "userInitials": "unknown-user",
      "version": "1.0"
    },
    {
      "changeDescription": "Approved version",
      "comment": "0",
      "conversionFactorToMaster": 1e-06,
      "convertibleUnit": true,
      "ctUnits": [
        {
          "name": "umol/L",
          "termUid": "C48508_umol/L"
        }
      ],
      "definition": "CDISC code: C48508_x005F_x000D_\nCDISC submission value: umol/L_x005F_x000D_\nCDISC synonym: Micromole per Liter_x005F_x000D_\nCDISC Description: A unit of concentration (molarity unit) equal to one one-millionth of a mole (10E-6 mole) of solute per one liter of solution. (NCI)_x005F_x000D_\nNCI preferred term: umol/L",
      "displayUnit": true,
      "endDate": null,
      "legacyCode": "umol/L",
      "libraryName": "Sponsor",
      "masterUnit": false,
      "molecularWeightConvExpon": 1,
      "name": "umol/L",
      "order": 35,
      "siUnit": true,
      "startDate": "2022-07-06T19:27:56.719268",
      "status": "Final",
      "templateParameter": false,
      "ucum": {
        "name": "umol/L",
        "termUid": "DictionaryTerm_000436"
      },
      "uid": "UnitDefinition_000054",
      "unitDimension": {
        "name": "Concentration",
        "termUid": "CTTerm_000251"
      },
      "unitSubsets": [],
      "usConventionalUnit": true,
      "userInitials": "unknown-user",
      "version": "1.0"
    },
    {
      "changeDescription": "Approved version",
      "comment": "0",
      "conversionFactorToMaster": 0.01,
      "convertibleUnit": true,
      "ctUnits": [
        {
          "name": "mg/dL",
          "termUid": "C67015_mg/dL"
        }
      ],
      "definition": "Found this explanation using this link:https://fscimage.fishersci.com/webimages_FSC/downloads/winek.pdf",
      "displayUnit": true,
      "endDate": null,
      "legacyCode": "mg%",
      "libraryName": "Sponsor",
      "masterUnit": false,
      "molecularWeightConvExpon": 0,
      "name": "mg%",
      "order": 35,
      "siUnit": false,
      "startDate": "2022-07-06T19:27:56.879397",
      "status": "Final",
      "templateParameter": false,
      "ucum": null,
      "uid": "UnitDefinition_000055",
      "unitDimension": {
        "name": "Concentration",
        "termUid": "CTTerm_000251"
      },
      "unitSubsets": [],
      "usConventionalUnit": true,
      "userInitials": "unknown-user",
      "version": "1.0"
    },
    {
      "changeDescription": "Approved version",
      "comment": "0",
      "conversionFactorToMaster": 1.0,
      "convertibleUnit": false,
      "ctUnits": [
        {
          "name": "kg/mol",
          "termUid": "C122210_kg/mol"
        }
      ],
      "definition": "A unit of mass commonly used to express the molar mass of a substance in gram(s) per millimole.",
      "displayUnit": true,
      "endDate": null,
      "legacyCode": "g/mmol",
      "libraryName": "Sponsor",
      "masterUnit": false,
      "molecularWeightConvExpon": 1,
      "name": "g/mmol",
      "order": 1,
      "siUnit": false,
      "startDate": "2022-07-06T19:27:57.115245",
      "status": "Final",
      "templateParameter": false,
      "ucum": {
        "name": "g/mmol",
        "termUid": "DictionaryTerm_000252"
      },
      "uid": "UnitDefinition_000056",
      "unitDimension": {
        "name": "Concentration",
        "termUid": "CTTerm_000251"
      },
      "unitSubsets": [],
      "usConventionalUnit": false,
      "userInitials": "unknown-user",
      "version": "1.0"
    },
    {
      "changeDescription": "Approved version",
      "comment": "0",
      "conversionFactorToMaster": 1.0,
      "convertibleUnit": false,
      "ctUnits": [
        {
          "name": "g/mol",
          "termUid": "C73721_g/mol"
        }
      ],
      "definition": "CDISC code: C73721_x005F_x000D_\nCDISC submission value: g/mol_x005F_x000D_\nCDISC synonym: mg/mmol",
      "displayUnit": true,
      "endDate": null,
      "legacyCode": "mg/mmol",
      "libraryName": "Sponsor",
      "masterUnit": false,
      "molecularWeightConvExpon": 1,
      "name": "mg/mmol",
      "order": 35,
      "siUnit": false,
      "startDate": "2022-07-06T19:27:57.299787",
      "status": "Final",
      "templateParameter": false,
      "ucum": {
        "name": "mg/mmol",
        "termUid": "DictionaryTerm_000526"
      },
      "uid": "UnitDefinition_000057",
      "unitDimension": {
        "name": "Concentration",
        "termUid": "CTTerm_000251"
      },
      "unitSubsets": [],
      "usConventionalUnit": false,
      "userInitials": "unknown-user",
      "version": "1.0"
    },
    {
      "changeDescription": "Approved version",
      "comment": "0",
      "conversionFactorToMaster": 1e-09,
      "convertibleUnit": true,
      "ctUnits": [
        {
          "name": "nmol BCE/L",
          "termUid": "C117974_nmol BCE/L"
        }
      ],
      "definition": "SDTM Terminology 2015-12-18; Not available in version 2013-04-12_x005F_x000D_\n_x005F_x000D_\nCDISC code: C117974_x005F_x000D_\nCDISC submission value: nmol BCE/L_x005F_x000D_\nCDISC synonym: Nanomoles Bone Collagen Equivalents per Liter_x005F_x000D_\nCDISC Description:_x005F_x000D_\nA unit of relative amount of substance concentration equal to nanomoles of bone collagen equivalent weight per unit of volume equal to one liter._x005F_x000D_\nNCI preferred term: Nanomole Bone Collagen Equivalent per Liter",
      "displayUnit": true,
      "endDate": null,
      "legacyCode": "nmol BCE/L",
      "libraryName": "Sponsor",
      "masterUnit": false,
      "molecularWeightConvExpon": 1,
      "name": "nmol BCE/L",
      "order": 35,
      "siUnit": false,
      "startDate": "2022-07-06T19:27:57.519920",
      "status": "Final",
      "templateParameter": false,
      "ucum": {
        "name": "nmol/L",
        "termUid": "DictionaryTerm_000685"
      },
      "uid": "UnitDefinition_000058",
      "unitDimension": {
        "name": "Concentration",
        "termUid": "CTTerm_000251"
      },
      "unitSubsets": [],
      "usConventionalUnit": true,
      "userInitials": "unknown-user",
      "version": "1.0"
    },
    {
      "changeDescription": "Approved version",
      "comment": "0",
      "conversionFactorToMaster": 0.0,
      "convertibleUnit": false,
      "ctUnits": [
        {
          "name": "copies/mL",
          "termUid": "C100900_copies/mL"
        }
      ],
      "definition": "CDISC code: C100900_x005F_x000D_\nCDISC submission value: copies/mL_x005F_x000D_\nCDISC synonym(s): _x005F_x000D_\nCDISC definition: A unit of concentration expressed as a number of copies per unit volume equal to one milliliter._x005F_x000D_\nNCI preferred term: Copies per Milliliter_x005F_x000D_\n",
      "displayUnit": true,
      "endDate": null,
      "legacyCode": "copies/mL",
      "libraryName": "Sponsor",
      "masterUnit": false,
      "molecularWeightConvExpon": 0,
      "name": "copies/mL",
      "order": 37,
      "siUnit": false,
      "startDate": "2022-07-06T19:27:57.895973",
      "status": "Final",
      "templateParameter": false,
      "ucum": {
        "name": "/mL",
        "termUid": "DictionaryTerm_000769"
      },
      "uid": "UnitDefinition_000059",
      "unitDimension": {
        "name": "Concentration",
        "termUid": "CTTerm_000251"
      },
      "unitSubsets": [],
      "usConventionalUnit": false,
      "userInitials": "unknown-user",
      "version": "1.0"
    },
    {
      "changeDescription": "Approved version",
      "comment": "0",
      "conversionFactorToMaster": 0.0001,
      "convertibleUnit": true,
      "ctUnits": [
        {
          "name": "ug/L/h",
          "termUid": "C122229_ug/L/h"
        }
      ],
      "definition": "CDISC code: C67430_x005F_x000D_\nCDISC submission value: ng/mL/h_x005F_x000D_\nCDISC synonym(s): ng/h/mL; ng/mL/h; ug/L/h_x005F_x000D_\nCDISC definition: Nanograms per milliliter per hour._x005F_x000D_\nNCI preferred term: Nanogram per Milliliter per Hour\"_x005F_x000D_\n",
      "displayUnit": true,
      "endDate": null,
      "legacyCode": "ng/mL/h",
      "libraryName": "Sponsor",
      "masterUnit": false,
      "molecularWeightConvExpon": 0,
      "name": "ng/mL/h",
      "order": 36,
      "siUnit": false,
      "startDate": "2022-07-06T19:27:58.106125",
      "status": "Final",
      "templateParameter": false,
      "ucum": {
        "name": "ng/mL/h",
        "termUid": "DictionaryTerm_000658"
      },
      "uid": "UnitDefinition_000060",
      "unitDimension": {
        "name": "Concentration per time",
        "termUid": "CTTerm_000250"
      },
      "unitSubsets": [],
      "usConventionalUnit": true,
      "userInitials": "unknown-user",
      "version": "1.0"
    },
    {
      "changeDescription": "Approved version",
      "comment": "0",
      "conversionFactorToMaster": 6e-06,
      "convertibleUnit": true,
      "ctUnits": [
        {
          "name": "nmol/L/min",
          "termUid": "C122219_nmol/L/min"
        }
      ],
      "definition": "CDISC Submission value: nmol/L/min_x005F_x000D_\nCDISC Synonym: nmol*min/L; pmol/mL/min_x005F_x000D_\nCDISC code:C122219_x005F_x000D_\nCDISC definition:A rate unit equal to the number of nanomoles per unit of volume equal to one liter per unit of time equal to one minute._x005F_x000D_\nNCI preferred term:Nanomole per Liter per Minute_x005F_x000D_\n",
      "displayUnit": true,
      "endDate": null,
      "legacyCode": "nM/min",
      "libraryName": "Sponsor",
      "masterUnit": false,
      "molecularWeightConvExpon": null,
      "name": "nM/min",
      "order": 36,
      "siUnit": false,
      "startDate": "2022-07-06T19:27:58.443234",
      "status": "Final",
      "templateParameter": false,
      "ucum": null,
      "uid": "UnitDefinition_000061",
      "unitDimension": {
        "name": "Concentration per time",
        "termUid": "CTTerm_000250"
      },
      "unitSubsets": [],
      "usConventionalUnit": true,
      "userInitials": "unknown-user",
      "version": "1.0"
    },
    {
      "changeDescription": "Approved version",
      "comment": "The unit is used when wearables measure physical activity as steps. It is not defined by UCUM perhaps because it basically is a count (which is also not a unit). However, CDISC does define it as: \"A unit of measure to quantify the number of strides taken during a normal walking gait.\"",
      "conversionFactorToMaster": 1.0,
      "convertibleUnit": false,
      "ctUnits": [
        {
          "name": "STEPS",
          "termUid": "C111318_STEPS"
        }
      ],
      "definition": "A unit of measure to quantify the number of strides taken during a normal walking gait.",
      "displayUnit": true,
      "endDate": null,
      "legacyCode": "STEPS",
      "libraryName": "Sponsor",
      "masterUnit": false,
      "molecularWeightConvExpon": null,
      "name": "STEPS",
      "order": 39,
      "siUnit": false,
      "startDate": "2022-07-06T19:27:59.377044",
      "status": "Final",
      "templateParameter": false,
      "ucum": null,
      "uid": "UnitDefinition_000062",
      "unitDimension": {
        "name": "Count",
        "termUid": "CTTerm_000247"
      },
      "unitSubsets": [],
      "usConventionalUnit": false,
      "userInitials": "unknown-user",
      "version": "1.0"
    },
    {
      "changeDescription": "Approved version",
      "comment": "0",
      "conversionFactorToMaster": 0.001368925,
      "convertibleUnit": false,
      "ctUnits": [
        {
          "name": "/month",
          "termUid": "C64498_/month"
        }
      ],
      "definition": "CDISC code:C64498_x005F_x000D_\nCDISC submission value:/month_x005F_x000D_\nCDISC Synonym(s): Every Month; Per Month_x005F_x000D_\nCDISC definition: Every month. (NCI)_x005F_x000D_\nNCI Preferred Term : Monthly",
      "displayUnit": true,
      "endDate": null,
      "legacyCode": "/month",
      "libraryName": "Sponsor",
      "masterUnit": false,
      "molecularWeightConvExpon": null,
      "name": "/month",
      "order": 39,
      "siUnit": false,
      "startDate": "2022-07-06T19:27:59.607207",
      "status": "Final",
      "templateParameter": false,
      "ucum": {
        "name": "/mo",
        "termUid": "DictionaryTerm_000774"
      },
      "uid": "UnitDefinition_000063",
      "unitDimension": {
        "name": "Count per time",
        "termUid": "CTTerm_000246"
      },
      "unitSubsets": [],
      "usConventionalUnit": false,
      "userInitials": "unknown-user",
      "version": "1.0"
    },
    {
      "changeDescription": "Approved version",
      "comment": "Note that this unit exists in two unit dimensions, i.e Elimination and Count per time",
      "conversionFactorToMaster": 1.0,
      "convertibleUnit": true,
      "ctUnits": [
        {
          "name": "/h",
          "termUid": "C66966_/h"
        }
      ],
      "definition": "CDISC code: C66966_x005F_x000D_\nCDISC submission value: /h_x005F_x000D_\nCDISC synonym(s): Per Hour_x005F_x000D_\nCDISC definition: A rate of occurrences of something within a period of time equal to sixty minutes._x005F_x000D_\nNCI preferred term: /h",
      "displayUnit": true,
      "endDate": null,
      "legacyCode": "/h",
      "libraryName": "Sponsor",
      "masterUnit": false,
      "molecularWeightConvExpon": null,
      "name": "/h",
      "order": 39,
      "siUnit": false,
      "startDate": "2022-07-06T19:27:59.733598",
      "status": "Final",
      "templateParameter": false,
      "ucum": {
        "name": "/h",
        "termUid": "DictionaryTerm_000761"
      },
      "uid": "UnitDefinition_000064",
      "unitDimension": {
        "name": "Count per time",
        "termUid": "CTTerm_000246"
      },
      "unitSubsets": [],
      "usConventionalUnit": true,
      "userInitials": "unknown-user",
      "version": "1.0"
    },
    {
      "changeDescription": "Approved version",
      "comment": "0",
      "conversionFactorToMaster": 0.00011408,
      "convertibleUnit": true,
      "ctUnits": [
        {
          "name": "PA",
          "termUid": "C74924_PA"
        }
      ],
      "definition": "SDTM Terminology 2017-06-30_x005F_x000D_\nCode:C74924_x005F_x000D_\nCDISC Code Value: PA_x005F_x000D_\nCDISC Value Label: PA_x005F_x000D_\nCDISC synonym(s): /Year; Every Year; Per Annum; Per Year_x005F_x000D_\nCDISC definition: A frequency rate of occurrences of something within a period of time equal to three hundred sixty-five days._x005F_x000D_\nNCI preferred term: Per Year",
      "displayUnit": true,
      "endDate": null,
      "legacyCode": "Per Year",
      "libraryName": "Sponsor",
      "masterUnit": false,
      "molecularWeightConvExpon": 0,
      "name": "Per Year",
      "order": 39,
      "siUnit": false,
      "startDate": "2022-07-06T19:28:00.002808",
      "status": "Final",
      "templateParameter": false,
      "ucum": {
        "name": "/a",
        "termUid": "DictionaryTerm_000784"
      },
      "uid": "UnitDefinition_000065",
      "unitDimension": {
        "name": "Count per time",
        "termUid": "CTTerm_000246"
      },
      "unitSubsets": [],
      "usConventionalUnit": true,
      "userInitials": "unknown-user",
      "version": "1.0"
    },
    {
      "changeDescription": "Approved version",
      "comment": "0",
      "conversionFactorToMaster": 0.0059524,
      "convertibleUnit": true,
      "ctUnits": [
        {
          "name": "/wk",
          "termUid": "C67069_/wk"
        }
      ],
      "definition": "Code:C67069_x005F_x000D_\nCDISC submission Value: /wk_x005F_x000D_\nCDISC Value Label: EVERY WEEK_x005F_x000D_\nCDISC synonym(s): Every week; Per Week; QS_x005F_x000D_\nCDISC definition: Every week. (NCI)_x005F_x000D_\nNCI preferred term: Weekly_x005F_x000D_\n",
      "displayUnit": true,
      "endDate": null,
      "legacyCode": "/wk",
      "libraryName": "Sponsor",
      "masterUnit": false,
      "molecularWeightConvExpon": 0,
      "name": "/wk",
      "order": 39,
      "siUnit": false,
      "startDate": "2022-07-06T19:28:00.492631",
      "status": "Final",
      "templateParameter": false,
      "ucum": {
        "name": "/wk",
        "termUid": "DictionaryTerm_000783"
      },
      "uid": "UnitDefinition_000066",
      "unitDimension": {
        "name": "Count per time",
        "termUid": "CTTerm_000246"
      },
      "unitSubsets": [],
      "usConventionalUnit": true,
      "userInitials": "unknown-user",
      "version": "1.0"
    },
    {
      "changeDescription": "Approved version",
      "comment": "Not defined by CDISC or UCUM. We have linked it to /h which is defined in both.",
      "conversionFactorToMaster": 1.0,
      "convertibleUnit": true,
      "ctUnits": [
        {
          "name": "/h",
          "termUid": "C66966_/h"
        }
      ],
      "definition": "Number of events per hour",
      "displayUnit": true,
      "endDate": null,
      "legacyCode": "Events/h",
      "libraryName": "Sponsor",
      "masterUnit": true,
      "molecularWeightConvExpon": null,
      "name": "Events/h",
      "order": 500,
      "siUnit": false,
      "startDate": "2022-07-06T19:28:00.489061",
      "status": "Final",
      "templateParameter": false,
      "ucum": {
        "name": "/h",
        "termUid": "DictionaryTerm_000761"
      },
      "uid": "UnitDefinition_000067",
      "unitDimension": {
        "name": "Count per time",
        "termUid": "CTTerm_000246"
      },
      "unitSubsets": [],
      "usConventionalUnit": true,
      "userInitials": "unknown-user",
      "version": "1.0"
    },
    {
      "changeDescription": "Approved version",
      "comment": "Note that this unit exists in four unit dimensions, i.e Beat rate, elimination, Respiratory rate and count per time",
      "conversionFactorToMaster": 60.0,
      "convertibleUnit": true,
      "ctUnits": [
        {
          "name": "cpm",
          "termUid": "C73688_cpm"
        }
      ],
      "definition": "Counts per minute",
      "displayUnit": true,
      "endDate": null,
      "legacyCode": "Counts/min",
      "libraryName": "Sponsor",
      "masterUnit": false,
      "molecularWeightConvExpon": 0,
      "name": "Counts/min",
      "order": 39,
      "siUnit": false,
      "startDate": "2022-07-06T19:28:00.771593",
      "status": "Final",
      "templateParameter": false,
      "ucum": {
        "name": "/min",
        "termUid": "DictionaryTerm_000773"
      },
      "uid": "UnitDefinition_000068",
      "unitDimension": {
        "name": "Count per time",
        "termUid": "CTTerm_000246"
      },
      "unitSubsets": [],
      "usConventionalUnit": true,
      "userInitials": "unknown-user",
      "version": "1.0"
    },
    {
      "changeDescription": "Approved version",
      "comment": "0",
      "conversionFactorToMaster": 1.0,
      "convertibleUnit": false,
      "ctUnits": [
        {
          "name": "days/wk",
          "termUid": "C170633_days/wk"
        }
      ],
      "definition": "A unit of measurement equal to the number of days within a period of time equal to one week.",
      "displayUnit": true,
      "endDate": null,
      "legacyCode": "days/wk",
      "libraryName": "Sponsor",
      "masterUnit": false,
      "molecularWeightConvExpon": null,
      "name": "days/wk",
      "order": 1950,
      "siUnit": false,
      "startDate": "2022-07-06T19:28:00.952074",
      "status": "Final",
      "templateParameter": false,
      "ucum": {
        "name": "d/wk",
        "termUid": "DictionaryTerm_000130"
      },
      "uid": "UnitDefinition_000069",
      "unitDimension": {
        "name": "Count per time",
        "termUid": "CTTerm_000246"
      },
      "unitSubsets": [],
      "usConventionalUnit": false,
      "userInitials": "unknown-user",
      "version": "1.0"
    },
    {
      "changeDescription": "Approved version",
      "comment": "0",
      "conversionFactorToMaster": 1.0,
      "convertibleUnit": true,
      "ctUnits": [
        {
          "name": "deg",
          "termUid": "C68667_deg"
        }
      ],
      "definition": "CDISC Submission value: deg_x005F_x000D_\nCDISC Synonym: Degree Unit of Plane Angle_x005F_x000D_\nCDISC code:C68667_x005F_x000D_\nCDISC definition: A unit of plane angle measurement equal to the length of the arc cut out by the angle, divided by the circumference of the circle, and multiplied by 360. The symbol for degrees is a small superscript circle. One radian is about 57 degrees and one degree is pi/180 radians.(NCI",
      "displayUnit": true,
      "endDate": null,
      "legacyCode": "deg",
      "libraryName": "Sponsor",
      "masterUnit": true,
      "molecularWeightConvExpon": null,
      "name": "deg",
      "order": 40,
      "siUnit": false,
      "startDate": "2022-07-06T19:28:01.107451",
      "status": "Final",
      "templateParameter": false,
      "ucum": {
        "name": "deg",
        "termUid": "DictionaryTerm_000135"
      },
      "uid": "UnitDefinition_000070",
      "unitDimension": {
        "name": "Degrees",
        "termUid": "CTTerm_000244"
      },
      "unitSubsets": [],
      "usConventionalUnit": true,
      "userInitials": "unknown-user",
      "version": "1.0"
    },
    {
      "changeDescription": "Approved version",
      "comment": "Note that this unit exists in two unit dimensions, i.e Elimination and Count per time",
      "conversionFactorToMaster": 1.0,
      "convertibleUnit": true,
      "ctUnits": [
        {
          "name": "/h",
          "termUid": "C66966_/h"
        }
      ],
      "definition": "1/h_x005F_x000D_\n",
      "displayUnit": true,
      "endDate": null,
      "legacyCode": "1/h",
      "libraryName": "Sponsor",
      "masterUnit": true,
      "molecularWeightConvExpon": null,
      "name": "1/h",
      "order": 50,
      "siUnit": false,
      "startDate": "2022-07-06T19:28:02.961721",
      "status": "Final",
      "templateParameter": false,
      "ucum": null,
      "uid": "UnitDefinition_000075",
      "unitDimension": {
        "name": "Elimination",
        "termUid": "CTTerm_000259"
      },
      "unitSubsets": [],
      "usConventionalUnit": true,
      "userInitials": "unknown-user",
      "version": "1.0"
    },
    {
      "changeDescription": "Approved version",
      "comment": "0",
      "conversionFactorToMaster": 0.04166,
      "convertibleUnit": true,
      "ctUnits": [
        {
          "name": "/day",
          "termUid": "C25473_/day"
        }
      ],
      "definition": "CDISC code: C25473_x005F_x000D_\nCDISC submission value: /day_x005F_x000D_\nCDISC synonym: Daily; Per Day_x005F_x000D_\nCDISC Description: Occurring or done each day. (NCI)_x005F_x000D_\nNCI preferred term: Daily",
      "displayUnit": true,
      "endDate": null,
      "legacyCode": "/day",
      "libraryName": "Sponsor",
      "masterUnit": false,
      "molecularWeightConvExpon": null,
      "name": "/day",
      "order": 50,
      "siUnit": false,
      "startDate": "2022-07-06T19:28:03.081894",
      "status": "Final",
      "templateParameter": false,
      "ucum": {
        "name": "/d",
        "termUid": "DictionaryTerm_000750"
      },
      "uid": "UnitDefinition_000076",
      "unitDimension": {
        "name": "Elimination",
        "termUid": "CTTerm_000259"
      },
      "unitSubsets": [],
      "usConventionalUnit": true,
      "userInitials": "unknown-user",
      "version": "1.0"
    },
    {
      "changeDescription": "Approved version",
      "comment": "0",
      "conversionFactorToMaster": 0.04166,
      "convertibleUnit": true,
      "ctUnits": [
        {
          "name": "/day",
          "termUid": "C25473_/day"
        }
      ],
      "definition": "CDISC code: C25473_x005F_x000D_\nCDISC submission value: /day_x005F_x000D_\nCDISC synonym: Daily; Per Day_x005F_x000D_\nCDISC Description: Occurring or done each day. (NCI)_x005F_x000D_\nNCI preferred term: Daily",
      "displayUnit": true,
      "endDate": null,
      "legacyCode": "1/d",
      "libraryName": "Sponsor",
      "masterUnit": false,
      "molecularWeightConvExpon": null,
      "name": "1/d",
      "order": 50,
      "siUnit": false,
      "startDate": "2022-07-06T19:28:03.296385",
      "status": "Final",
      "templateParameter": false,
      "ucum": null,
      "uid": "UnitDefinition_000078",
      "unitDimension": {
        "name": "Elimination",
        "termUid": "CTTerm_000259"
      },
      "unitSubsets": [],
      "usConventionalUnit": true,
      "userInitials": "unknown-user",
      "version": "1.0"
    },
    {
      "changeDescription": "Approved version",
      "comment": "0",
      "conversionFactorToMaster": 0.04166,
      "convertibleUnit": true,
      "ctUnits": [
        {
          "name": "/day",
          "termUid": "C25473_/day"
        }
      ],
      "definition": "CDISC code: C25473_x005F_x000D_\nCDISC submission value: /day_x005F_x000D_\nCDISC synonym: Daily; Per Day_x005F_x000D_\nCDISC Description: Occurring or done each day. (NCI)_x005F_x000D_\nNCI preferred term: Daily",
      "displayUnit": true,
      "endDate": null,
      "legacyCode": "1/day",
      "libraryName": "Sponsor",
      "masterUnit": false,
      "molecularWeightConvExpon": null,
      "name": "1/day",
      "order": 50,
      "siUnit": false,
      "startDate": "2022-07-06T19:28:03.530845",
      "status": "Final",
      "templateParameter": false,
      "ucum": null,
      "uid": "UnitDefinition_000079",
      "unitDimension": {
        "name": "Elimination",
        "termUid": "CTTerm_000259"
      },
      "unitSubsets": [],
      "usConventionalUnit": true,
      "userInitials": "unknown-user",
      "version": "1.0"
    },
    {
      "changeDescription": "Approved version",
      "comment": "0",
      "conversionFactorToMaster": 1.0,
      "convertibleUnit": true,
      "ctUnits": [
        {
          "name": "Joule",
          "termUid": "C42548_Joule"
        }
      ],
      "definition": "CDISC code: C42548_x005F_x000D_\nCDISC submission value: Joule_x005F_x000D_\nCDISC synonym: Joule_x005F_x000D_\nCDISC Description: A unit of electrical, mechanical, and thermal energy (as well as work and quantity of heat), equal to the work done when the point of application of a force of one Newton is displaced through a distance of one meter in the direction of the force or the work done when a current of one Ampere passes through a resistance of one ohm for one second. One joule is equal to 0.23889 gram-calorie (mean).(NCI)_x005F_x000D_\nNCI preferred term: Joule",
      "displayUnit": true,
      "endDate": null,
      "legacyCode": "J",
      "libraryName": "Sponsor",
      "masterUnit": true,
      "molecularWeightConvExpon": null,
      "name": "J",
      "order": 52,
      "siUnit": false,
      "startDate": "2022-07-06T19:28:03.806397",
      "status": "Final",
      "templateParameter": false,
      "ucum": {
        "name": "J",
        "termUid": "DictionaryTerm_000305"
      },
      "uid": "UnitDefinition_000080",
      "unitDimension": {
        "name": "Energy",
        "termUid": "CTTerm_000238"
      },
      "unitSubsets": [],
      "usConventionalUnit": true,
      "userInitials": "unknown-user",
      "version": "1.0"
    },
    {
      "changeDescription": "Approved version",
      "comment": "There are 7 different UCUM definitions of a calorie so which one to choose? According to UCUM, the most used is the thermochemical calorie defined as 4.184 J. It is a legacy unit that should ideally not be used. Instead, Joule. In the current implementation I have chosen to define kcal as [Cal] equal to 1 kcal_th.",
      "conversionFactorToMaster": 4.186,
      "convertibleUnit": true,
      "ctUnits": [
        {
          "name": "cal",
          "termUid": "C67193_cal"
        }
      ],
      "definition": "CDISC code: C67193_x005F_x000D_\nCDISC submission value: cal_x005F_x000D_\nCDISC synonym: Calorie_x005F_x000D_\nCDISC Description: A measurement of nutritional energy. The quantity of thermal energy required to raise one gram of water one degree Centigrade under standard conditions. 1 calorie equals 4.186 joules. (NCI)_x005F_x000D_\nNCI preferred term: calorie",
      "displayUnit": true,
      "endDate": null,
      "legacyCode": "cal",
      "libraryName": "Sponsor",
      "masterUnit": false,
      "molecularWeightConvExpon": null,
      "name": "cal",
      "order": 50,
      "siUnit": false,
      "startDate": "2022-07-06T19:28:04.129017",
      "status": "Final",
      "templateParameter": false,
      "ucum": null,
      "uid": "UnitDefinition_000081",
      "unitDimension": {
        "name": "Energy",
        "termUid": "CTTerm_000238"
      },
      "unitSubsets": [],
      "usConventionalUnit": true,
      "userInitials": "unknown-user",
      "version": "1.0"
    },
    {
      "changeDescription": "Approved version",
      "comment": "There are 7 different UCUM definitions of a calorie so which one to choose? According to UCUM, the most used is the thermochemical calorie defined as 4.184 J. It is a legacy unit that should ideally not be used. Instead, Joule. In the current implementation I have chosen to define kcal as [Cal] equal to 1 kcal_th.",
      "conversionFactorToMaster": 4185.0,
      "convertibleUnit": true,
      "ctUnits": [
        {
          "name": "kcal",
          "termUid": "C67194_kcal"
        }
      ],
      "definition": "CDISC code: C67194_x005F_x000D_\nCDISC submission value: kcal_x005F_x000D_\nCDISC synonym: Kilogram-Calorie_x005F_x000D_\nCDISC Description: A unit of energy defined as the amount of heat required to raise the temperature of one kilogram of pure water by one degree Centigrade under standard conditions (the specific heat of the water at 15 degrees Celsius and the constant pressure of 101.325 kilopascals or one atm being defined as unity), equal to approximately 4.1855 kJ. It is also is used by nutritionists in measuring the energy-producing potential of food as a unit of potential energy contained by a substance, which can be liberated when the material is oxidized, usually by combustion in the presence of oxygen.(NCI)_x005F_x000D_\nNCI preferred term: Calorie",
      "displayUnit": true,
      "endDate": null,
      "legacyCode": "Kcal",
      "libraryName": "Sponsor",
      "masterUnit": false,
      "molecularWeightConvExpon": null,
      "name": "Kcal",
      "order": 52,
      "siUnit": false,
      "startDate": "2022-07-06T19:28:04.327467",
      "status": "Final",
      "templateParameter": false,
      "ucum": null,
      "uid": "UnitDefinition_000082",
      "unitDimension": {
        "name": "Energy",
        "termUid": "CTTerm_000238"
      },
      "unitSubsets": [],
      "usConventionalUnit": true,
      "userInitials": "unknown-user",
      "version": "1.0"
    },
    {
      "changeDescription": "Approved version",
      "comment": "0",
      "conversionFactorToMaster": 1.0,
      "convertibleUnit": false,
      "ctUnits": [
        {
          "name": "MET",
          "termUid": "C127805_MET"
        }
      ],
      "definition": "Metabolic equivalent of task_x005F_x000D_\nFrom Wikipedia_x005F_x000D_\nThe metabolic equivalent of task (MET), or simply metabolic equivalent, is a physiological concept expressing the energy cost of physical activities[1] as multiples of resting metabolic rate (RMR) and is defined as the ratio of metabolic rate (and therefore the rate of energy consumption) during a specific physical activity to a reference rate of metabolic rate at rest, set by convention to 3.5 ml O2?kg-1?min-1 or equivalently 1 kcal?kg-1? h-1 or 4.184 kJ?kg-1? h-1. By convention 1 MET is considered as the resting metabolic rate obtained during quiet sitting.[2][3] MET values of physical activities range from 0.9 (sleeping) to 18 (running at 17.5 km/h or a 5:31 mile pace)._x005F_x000D_\n",
      "displayUnit": true,
      "endDate": null,
      "legacyCode": "MET",
      "libraryName": "Sponsor",
      "masterUnit": false,
      "molecularWeightConvExpon": null,
      "name": "MET",
      "order": 50,
      "siUnit": false,
      "startDate": "2022-07-06T19:28:04.480496",
      "status": "Final",
      "templateParameter": false,
      "ucum": null,
      "uid": "UnitDefinition_000083",
      "unitDimension": {
        "name": "Energy",
        "termUid": "CTTerm_000238"
      },
      "unitSubsets": [],
      "usConventionalUnit": false,
      "userInitials": "unknown-user",
      "version": "1.0"
    },
    {
      "changeDescription": "Approved version",
      "comment": "There are 7 different UCUM definitions of a calorie so which one to choose? According to UCUM, the most used is the thermochemical calorie defined as 4.184 J. It is a legacy unit that should ideally not be used. Instead, Joule. In the current implementation I have chosen to define kcal as [Cal] equal to 1 kcal_th.",
      "conversionFactorToMaster": 0.0484,
      "convertibleUnit": true,
      "ctUnits": [
        {
          "name": "Kilocalorie per Day",
          "termUid": "C139135_kcal/day"
        }
      ],
      "definition": "Kcal/24h",
      "displayUnit": true,
      "endDate": null,
      "legacyCode": "Kcal/24h",
      "libraryName": "Sponsor",
      "masterUnit": false,
      "molecularWeightConvExpon": null,
      "name": "Kcal/24h",
      "order": 55,
      "siUnit": false,
      "startDate": "2022-07-06T19:28:04.795186",
      "status": "Final",
      "templateParameter": false,
      "ucum": null,
      "uid": "UnitDefinition_000084",
      "unitDimension": {
        "name": "Energy Expenditure",
        "termUid": "CTTerm_000237"
      },
      "unitSubsets": [],
      "usConventionalUnit": true,
      "userInitials": "unknown-user",
      "version": "1.0"
    },
    {
      "changeDescription": "Approved version",
      "comment": "0",
      "conversionFactorToMaster": 1.0,
      "convertibleUnit": true,
      "ctUnits": [
        {
          "name": "Watt",
          "termUid": "C42549_Watt"
        }
      ],
      "definition": "CDISC not found, J/sec where _x005F_x000D_\nJ=Joule, where Joule is defined as m2 x kg x s^(-2) and sec=seconds_x005F_x000D_\n_x005F_x000D_\n",
      "displayUnit": true,
      "endDate": null,
      "legacyCode": "J/s",
      "libraryName": "Sponsor",
      "masterUnit": true,
      "molecularWeightConvExpon": null,
      "name": "J/s",
      "order": 55,
      "siUnit": false,
      "startDate": "2022-07-06T19:28:05.044792",
      "status": "Final",
      "templateParameter": false,
      "ucum": null,
      "uid": "UnitDefinition_000085",
      "unitDimension": {
        "name": "Energy Expenditure",
        "termUid": "CTTerm_000237"
      },
      "unitSubsets": [],
      "usConventionalUnit": true,
      "userInitials": "unknown-user",
      "version": "1.0"
    },
    {
      "changeDescription": "Approved version",
      "comment": "0",
      "conversionFactorToMaster": 1.0,
      "convertibleUnit": false,
      "ctUnits": [
        {
          "name": "mL/kg/min",
          "termUid": "C73760_mL/kg/min"
        }
      ],
      "definition": "<CodeLists>_x005F_x000D_\n<CodeList Value=\"UNIT\"></CodeList>_x005F_x000D_\n<CodeList Value=\"PKUNIT\"></CodeList>_x005F_x000D_\n</CodeLists>_x005F_x000D_\nCDISC code: C73760_x005F_x000D_\nCDISC submission value: mL/kg/min_x005F_x000D_\nCDISC synonym: Milliliter per Kilogram per Minute; uL/g/min; mL/min/kg; uL/min/g; mL/kg/min_x005F_x000D_\nCDISC Description: Milliliters per kilogram per minute._x005F_x000D_\nNCI preferred term: mL/kg/min_x005F_x000D_\n",
      "displayUnit": true,
      "endDate": null,
      "legacyCode": "mL/kg/min",
      "libraryName": "Sponsor",
      "masterUnit": false,
      "molecularWeightConvExpon": null,
      "name": "mL/kg/min",
      "order": 55,
      "siUnit": false,
      "startDate": "2022-07-06T19:28:05.356077",
      "status": "Final",
      "templateParameter": false,
      "ucum": {
        "name": "mL/kg/min",
        "termUid": "DictionaryTerm_000556"
      },
      "uid": "UnitDefinition_000086",
      "unitDimension": {
        "name": "Energy Expenditure",
        "termUid": "CTTerm_000237"
      },
      "unitSubsets": [],
      "usConventionalUnit": false,
      "userInitials": "unknown-user",
      "version": "1.0"
    },
    {
      "changeDescription": "Approved version",
      "comment": "0",
      "conversionFactorToMaster": 1.0,
      "convertibleUnit": false,
      "ctUnits": [
        {
          "name": "MET*min",
          "termUid": "C127807_MET*min"
        }
      ],
      "definition": "A metabolic equivalent, or MET, is a unit useful for describing the energy expenditure of a specific activity. A MET is the ratio of the rate of energy expended during an activity to the rate of energy expended at rest.eg If a person does a 4 MET activity for 30 minutes, he or she has done 4 x 30 = 120 MET-minutes.",
      "displayUnit": true,
      "endDate": null,
      "legacyCode": "MET-minutes",
      "libraryName": "Sponsor",
      "masterUnit": false,
      "molecularWeightConvExpon": null,
      "name": "MET-minutes",
      "order": 55,
      "siUnit": false,
      "startDate": "2022-07-06T19:28:05.553206",
      "status": "Final",
      "templateParameter": false,
      "ucum": null,
      "uid": "UnitDefinition_000087",
      "unitDimension": {
        "name": "Energy Expenditure",
        "termUid": "CTTerm_000237"
      },
      "unitSubsets": [],
      "usConventionalUnit": false,
      "userInitials": "unknown-user",
      "version": "1.0"
    },
    {
      "changeDescription": "Approved version",
      "comment": "0",
      "conversionFactorToMaster": 1.0,
      "convertibleUnit": true,
      "ctUnits": [
        {
          "name": "mEq/day",
          "termUid": "C67471_mEq/day"
        }
      ],
      "definition": "MilliEquivalent (mEq) . The equivalent of a substance is the amount of the substance multiplied by its valence.  For example, 1 mEq = 39 mg of potassium or 23 mg of sodium or  35.4 mg of chlorine_x005F_x000D_\nCDISC code: C67471_x005F_x000D_\nCDISC submission value: mEq/day_x005F_x000D_\nCDISC synonym(s): Milliequivalents per Day  _x005F_x000D_\nCDISC definition: A unit of relative amount of substance flow rate equivalent to the rate at which one thousandth of an equivalent of substance travels to a given object or space over a period of time equal to twenty four hours.(NCI)_x005F_x000D_\nNCI preferred term: Milliequivalent per 24 Hours",
      "displayUnit": true,
      "endDate": null,
      "legacyCode": "mEq/day",
      "libraryName": "Sponsor",
      "masterUnit": true,
      "molecularWeightConvExpon": 1,
      "name": "mEq/day",
      "order": 50,
      "siUnit": false,
      "startDate": "2022-07-06T19:28:05.787335",
      "status": "Final",
      "templateParameter": false,
      "ucum": {
        "name": "meq/d",
        "termUid": "DictionaryTerm_000481"
      },
      "uid": "UnitDefinition_000088",
      "unitDimension": {
        "name": "Equivalent Rate",
        "termUid": "CTTerm_000236"
      },
      "unitSubsets": [],
      "usConventionalUnit": true,
      "userInitials": "unknown-user",
      "version": "1.0"
    },
    {
      "changeDescription": "Approved version",
      "comment": "0",
      "conversionFactorToMaster": 60000.0,
      "convertibleUnit": true,
      "ctUnits": [
        {
          "name": "L/min",
          "termUid": "C67388_L/min"
        }
      ],
      "definition": "<CodeLists>_x005F_x000D_\n<CodeList Value=\"UNIT\"></CodeList>_x005F_x000D_\n<CodeList Value=\"PKUNIT\"></CodeList>_x005F_x000D_\n</CodeLists>_x005F_x000D_\nCDISC code: C67388_x005F_x000D_\nCDISC submission value: L/min_x005F_x000D_\nCDISC synonym: Liters per Minute_x005F_x000D_\nCDISC Description: A unit of volumetric flow rate defined as the rate at which one liter of matter travels during the period of time equal to one minute.(NCI)_x005F_x000D_\nNCI preferred term: Liter per Minute_x005F_x000D_\n",
      "displayUnit": true,
      "endDate": null,
      "legacyCode": "L/min",
      "libraryName": "Sponsor",
      "masterUnit": false,
      "molecularWeightConvExpon": null,
      "name": "L/min",
      "order": 60,
      "siUnit": false,
      "startDate": "2022-07-06T19:28:06.018507",
      "status": "Final",
      "templateParameter": false,
      "ucum": {
        "name": "L/min",
        "termUid": "DictionaryTerm_000350"
      },
      "uid": "UnitDefinition_000089",
      "unitDimension": {
        "name": "Flow",
        "termUid": "CTTerm_000258"
      },
      "unitSubsets": [],
      "usConventionalUnit": true,
      "userInitials": "unknown-user",
      "version": "1.0"
    },
    {
      "changeDescription": "Approved version",
      "comment": "0",
      "conversionFactorToMaster": 60.0,
      "convertibleUnit": true,
      "ctUnits": [
        {
          "name": "Milliliter per Minute",
          "termUid": "C64777_mL/min"
        }
      ],
      "definition": "<CodeLists>_x005F_x000D_\n<CodeList Value=\"UNIT\"></CodeList>_x005F_x000D_\n<CodeList Value=\"PKUNIT\"></CodeList>_x005F_x000D_\n</CodeLists>_x005F_x000D_\nCDISC code: C64777_x005F_x000D_\nCDISC submission value: mL/min_x005F_x000D_\nCDISC synonym: Milliliters per Minute_x005F_x000D_\nCDISC Description: A metric unit of volumetric flow rate defined as the rate at which one milliliter of matter travels during the period of time equal to one minute.(NCI)_x005F_x000D_\nNCI preferred term: Milliliter per Minute_x005F_x000D_\n",
      "displayUnit": true,
      "endDate": null,
      "legacyCode": "mL/min",
      "libraryName": "Sponsor",
      "masterUnit": false,
      "molecularWeightConvExpon": null,
      "name": "mL/min",
      "order": 60,
      "siUnit": false,
      "startDate": "2022-07-06T19:28:06.299309",
      "status": "Final",
      "templateParameter": false,
      "ucum": {
        "name": "mL/min",
        "termUid": "DictionaryTerm_000559"
      },
      "uid": "UnitDefinition_000090",
      "unitDimension": {
        "name": "Flow",
        "termUid": "CTTerm_000258"
      },
      "unitSubsets": [],
      "usConventionalUnit": true,
      "userInitials": "unknown-user",
      "version": "1.0"
    },
    {
      "changeDescription": "Approved version",
      "comment": "0",
      "conversionFactorToMaster": 1000.0,
      "convertibleUnit": true,
      "ctUnits": [
        {
          "name": "L/h",
          "termUid": "C69160_L/h"
        }
      ],
      "definition": "<CodeLists>_x005F_x000D_\n<CodeList Value=\"UNIT\"></CodeList>_x005F_x000D_\n<CodeList Value=\"PKUNIT\"></CodeList>_x005F_x000D_\n</CodeLists>_x005F_x000D_\nCDISC code: C69160_x005F_x000D_\nCDISC submission value: L/h_x005F_x000D_\nCDISC synonym: _x005F_x000D_\nCDISC Description: Liters per hour._x005F_x000D_\nNCI preferred term: Liter per Hour_x005F_x000D_\n",
      "displayUnit": true,
      "endDate": null,
      "legacyCode": "L/h",
      "libraryName": "Sponsor",
      "masterUnit": false,
      "molecularWeightConvExpon": null,
      "name": "L/h",
      "order": 70,
      "siUnit": false,
      "startDate": "2022-07-06T19:28:07.452715",
      "status": "Final",
      "templateParameter": false,
      "ucum": {
        "name": "L/h",
        "termUid": "DictionaryTerm_000347"
      },
      "uid": "UnitDefinition_000091",
      "unitDimension": {
        "name": "Flow",
        "termUid": "CTTerm_000258"
      },
      "unitSubsets": [],
      "usConventionalUnit": true,
      "userInitials": "unknown-user",
      "version": "1.0"
    },
    {
      "changeDescription": "Approved version",
      "comment": "0",
      "conversionFactorToMaster": 1.0,
      "convertibleUnit": true,
      "ctUnits": [
        {
          "name": "mL/h",
          "termUid": "C66962_mL/h"
        }
      ],
      "definition": "<CodeLists>_x005F_x000D_\n<CodeList Value=\"UNIT\"></CodeList>_x005F_x000D_\n<CodeList Value=\"PKUNIT\"></CodeList>_x005F_x000D_\n</CodeLists>_x005F_x000D_\nCDISC code: C66962_x005F_x000D_\nCDISC submission value: mL/h_x005F_x000D_\nCDISC synonym: Milliliters per Hour_x005F_x000D_\nCDISC Description: A unit of volumetric flow rate defined as the rate at which one milliliter of matter travels during the period of time equal to one hour.(NCI)_x005F_x000D_\nNCI preferred term: Milliliter per Hour_x005F_x000D_\n",
      "displayUnit": true,
      "endDate": null,
      "legacyCode": "mL/h",
      "libraryName": "Sponsor",
      "masterUnit": true,
      "molecularWeightConvExpon": null,
      "name": "mL/h",
      "order": 60,
      "siUnit": false,
      "startDate": "2022-07-06T19:28:07.712205",
      "status": "Final",
      "templateParameter": false,
      "ucum": {
        "name": "mL/h",
        "termUid": "DictionaryTerm_000551"
      },
      "uid": "UnitDefinition_000092",
      "unitDimension": {
        "name": "Flow",
        "termUid": "CTTerm_000258"
      },
      "unitSubsets": [],
      "usConventionalUnit": true,
      "userInitials": "unknown-user",
      "version": "1.0"
    },
    {
      "changeDescription": "Approved version",
      "comment": "0",
      "conversionFactorToMaster": 1.0,
      "convertibleUnit": true,
      "ctUnits": [
        {
          "name": "BU",
          "termUid": "C117966_BU"
        }
      ],
      "definition": "CDISC code: C117966_x005F_x000D_\nCDISC submission value: BU_x005F_x000D_\nCDISC synonym(s): Bethesda unit_x005F_x000D_\nCDISC definition: A unit of measurement for blood coagulation inhibitor activity,expressed in the amount of an inhibitor neutralizing 50% of a coagulant during the incubation period._x005F_x000D_\nNCI preferred term: Bethesda unit_x005F_x000D_\nNot in 2013-04-12",
      "displayUnit": true,
      "endDate": null,
      "legacyCode": "BU",
      "libraryName": "Sponsor",
      "masterUnit": true,
      "molecularWeightConvExpon": null,
      "name": "BU",
      "order": 90,
      "siUnit": false,
      "startDate": "2022-07-06T19:28:08.012208",
      "status": "Final",
      "templateParameter": false,
      "ucum": {
        "name": "[beth'U]",
        "termUid": "DictionaryTerm_000089"
      },
      "uid": "UnitDefinition_000093",
      "unitDimension": {
        "name": "Inhibitor activity",
        "termUid": "CTTerm_000261"
      },
      "unitSubsets": [],
      "usConventionalUnit": true,
      "userInitials": "unknown-user",
      "version": "1.0"
    },
    {
      "changeDescription": "Approved version",
      "comment": "0",
      "conversionFactorToMaster": 41.667,
      "convertibleUnit": true,
      "ctUnits": [
        {
          "name": "Liter per Day",
          "termUid": "C69110_L/day"
        }
      ],
      "definition": "A unit of flow rate equal to one liter per day.",
      "displayUnit": true,
      "endDate": null,
      "legacyCode": "L/day",
      "libraryName": "Sponsor",
      "masterUnit": false,
      "molecularWeightConvExpon": null,
      "name": "L/day",
      "order": 70,
      "siUnit": false,
      "startDate": "2022-07-06T19:28:08.265446",
      "status": "Final",
      "templateParameter": false,
      "ucum": {
        "name": "L/d",
        "termUid": "DictionaryTerm_000346"
      },
      "uid": "UnitDefinition_000094",
      "unitDimension": {
        "name": "Flow",
        "termUid": "CTTerm_000258"
      },
      "unitSubsets": [],
      "usConventionalUnit": true,
      "userInitials": "unknown-user",
      "version": "1.0"
    },
    {
      "changeDescription": "Approved version",
      "comment": "0",
      "conversionFactorToMaster": 1.0,
      "convertibleUnit": false,
      "ctUnits": [
        {
          "name": "BU/mL",
          "termUid": "C117967_BU/mL"
        }
      ],
      "definition": "CDISC code: C117967_x005F_x000D_\nCDISC submission value: BU/mL_x005F_x000D_\nCDISC synonym(s): Bethesda unit per Milliliter_x005F_x000D_\nCDISC definition: A unit of measurement for blood coagulation inhibitor activity,expressed as a Bethesda Unit per unit of volume equal to one milliliter._x005F_x000D_\nNCI preferred term: Bethesda unit per Milliliter",
      "displayUnit": true,
      "endDate": null,
      "legacyCode": "BU/mL",
      "libraryName": "Sponsor",
      "masterUnit": false,
      "molecularWeightConvExpon": null,
      "name": "BU/mL",
      "order": 90,
      "siUnit": false,
      "startDate": "2022-07-06T19:28:08.429532",
      "status": "Final",
      "templateParameter": false,
      "ucum": null,
      "uid": "UnitDefinition_000095",
      "unitDimension": {
        "name": "Inhibitor activity",
        "termUid": "CTTerm_000261"
      },
      "unitSubsets": [],
      "usConventionalUnit": false,
      "userInitials": "unknown-user",
      "version": "1.0"
    },
    {
      "changeDescription": "Approved version",
      "comment": "0",
      "conversionFactorToMaster": 0.001,
      "convertibleUnit": true,
      "ctUnits": [
        {
          "name": "mm",
          "termUid": "C28251_mm"
        }
      ],
      "definition": "CDISC code: C28251_x005F_x000D_\nCDISC submission value: mm_x005F_x000D_\nCDISC synonym: Millimeter_x005F_x000D_\nCDISC Description: A unit of measure equal to one thousandth of a meter. (NCI)_x005F_x000D_\nNCI preferred term: Millimeter",
      "displayUnit": true,
      "endDate": null,
      "legacyCode": "mm",
      "libraryName": "Sponsor",
      "masterUnit": false,
      "molecularWeightConvExpon": null,
      "name": "mm",
      "order": 120,
      "siUnit": false,
      "startDate": "2022-07-06T19:28:08.691283",
      "status": "Final",
      "templateParameter": false,
      "ucum": {
        "name": "mm",
        "termUid": "DictionaryTerm_000565"
      },
      "uid": "UnitDefinition_000096",
      "unitDimension": {
        "name": "Trial Length",
        "termUid": "C49697_LENGTH"
      },
      "unitSubsets": [],
      "usConventionalUnit": true,
      "userInitials": "unknown-user",
      "version": "1.0"
    },
    {
      "changeDescription": "Approved version",
      "comment": "0",
      "conversionFactorToMaster": 0.0254,
      "convertibleUnit": true,
      "ctUnits": [
        {
          "name": "Inch",
          "termUid": "C48500_in"
        }
      ],
      "definition": "<CodeLists>_x005F_x000D_\n<CodeList Value=\"UNIT\"></CodeList>_x005F_x000D_\n<CodeList Value=\"VSRESU\"></CodeList>_x005F_x000D_\n</CodeLists>_x005F_x000D_\n_x005F_x000D_\nA traditional unit of length equal to 2.54 centimeters. (NCI)_x005F_x000D_\n_x005F_x000D_\n",
      "displayUnit": true,
      "endDate": null,
      "legacyCode": "in",
      "libraryName": "Sponsor",
      "masterUnit": false,
      "molecularWeightConvExpon": null,
      "name": "in",
      "order": 120,
      "siUnit": false,
      "startDate": "2022-07-06T19:28:08.695914",
      "status": "Final",
      "templateParameter": false,
      "ucum": {
        "name": "[in_i]",
        "termUid": "DictionaryTerm_000282"
      },
      "uid": "UnitDefinition_000097",
      "unitDimension": {
        "name": "Trial Length",
        "termUid": "C49697_LENGTH"
      },
      "unitSubsets": [],
      "usConventionalUnit": true,
      "userInitials": "unknown-user",
      "version": "1.0"
    },
    {
      "changeDescription": "Approved version",
      "comment": "I chose the [ft_i], foot, unit used in the US and internationally. There are also other definitions of a foot.",
      "conversionFactorToMaster": 0.3048,
      "convertibleUnit": true,
      "ctUnits": [
        {
          "name": "ft",
          "termUid": "C71253_ft"
        }
      ],
      "definition": "A unit of length defined by the U.S. National Bureau of Standards as 30.48 centimeters. It is equal to 0.3048 meter, 12 inches, or to approximately 0.999998 survey foot.(NCI)_x005F_x000D_\n",
      "displayUnit": true,
      "endDate": null,
      "legacyCode": "ft",
      "libraryName": "Sponsor",
      "masterUnit": false,
      "molecularWeightConvExpon": null,
      "name": "ft",
      "order": 120,
      "siUnit": false,
      "startDate": "2022-07-06T19:28:09.029656",
      "status": "Final",
      "templateParameter": false,
      "ucum": {
        "name": "[ft_i]",
        "termUid": "DictionaryTerm_000209"
      },
      "uid": "UnitDefinition_000098",
      "unitDimension": {
        "name": "Trial Length",
        "termUid": "C49697_LENGTH"
      },
      "unitSubsets": [],
      "usConventionalUnit": true,
      "userInitials": "unknown-user",
      "version": "1.0"
    },
    {
      "changeDescription": "Approved version",
      "comment": "0",
      "conversionFactorToMaster": 1.0,
      "convertibleUnit": true,
      "ctUnits": [
        {
          "name": "m",
          "termUid": "C41139_m"
        }
      ],
      "definition": "<CodeLists>_x005F_x000D_\n<CodeList Value=\"UNIT\"></CodeList>_x005F_x000D_\n<CodeList Value=\"VSRESU\" CodeSubmValue=\"m\"></CodeList>_x005F_x000D_\n</CodeLists>_x005F_x000D_\nCDISC code: C41139_x005F_x000D_\nCDISC submission value: m_x005F_x000D_\nCDISC synonym: Meter_x005F_x000D_\nCDISC Description: A meter is defined as the length of the path traveled by light in a vacuum during a time interval of 1/299 792 458 of a second and is equal to 1.093 61 yards.(NCI)_x005F_x000D_\nNCI preferred term: Meter_x005F_x000D_\n",
      "displayUnit": true,
      "endDate": null,
      "legacyCode": "m",
      "libraryName": "Sponsor",
      "masterUnit": true,
      "molecularWeightConvExpon": null,
      "name": "m",
      "order": 120,
      "siUnit": true,
      "startDate": "2022-07-06T19:28:09.309136",
      "status": "Final",
      "templateParameter": false,
      "ucum": {
        "name": "m",
        "termUid": "DictionaryTerm_000366"
      },
      "uid": "UnitDefinition_000099",
      "unitDimension": {
        "name": "Trial Length",
        "termUid": "C49697_LENGTH"
      },
      "unitSubsets": [],
      "usConventionalUnit": true,
      "userInitials": "unknown-user",
      "version": "1.0"
    },
    {
      "changeDescription": "Approved version",
      "comment": "0",
      "conversionFactorToMaster": 0.01,
      "convertibleUnit": true,
      "ctUnits": [
        {
          "name": "cm",
          "termUid": "C49668_cm"
        }
      ],
      "definition": "<CodeLists>_x005F_x000D_\n<CodeList Value=\"UNIT\"></CodeList>_x005F_x000D_\n<CodeList Value=\"VSRESU\"></CodeList>_x005F_x000D_\n</CodeLists>_x005F_x000D_\nCDISC code: C49668_x005F_x000D_\nCDISC submission value: cm_x005F_x000D_\nCDISC synonym: Centimeter_x005F_x000D_\nCDISC Description: A basic unit of length equal to one hundredth of a meter or approximately 0.393700787 inch._x005F_x000D_\nNCI preferred term: Centimeter_x005F_x000D_\n",
      "displayUnit": true,
      "endDate": null,
      "legacyCode": "cm",
      "libraryName": "Sponsor",
      "masterUnit": false,
      "molecularWeightConvExpon": null,
      "name": "cm",
      "order": 120,
      "siUnit": true,
      "startDate": "2022-07-06T19:28:09.560268",
      "status": "Final",
      "templateParameter": false,
      "ucum": {
        "name": "cm",
        "termUid": "DictionaryTerm_000103"
      },
      "uid": "UnitDefinition_000100",
      "unitDimension": {
        "name": "Trial Length",
        "termUid": "C49697_LENGTH"
      },
      "unitSubsets": [],
      "usConventionalUnit": true,
      "userInitials": "unknown-user",
      "version": "1.0"
    },
    {
      "changeDescription": "Approved version",
      "comment": "0",
      "conversionFactorToMaster": 1.0,
      "convertibleUnit": false,
      "ctUnits": [
        {
          "name": "ppm",
          "termUid": "C48523_ppm"
        }
      ],
      "definition": "CDISC code: C48523_x005F_x000D_\nCDISC submission value: ppm_x005F_x000D_\nCDISC synonym: Part per Million_x005F_x000D_\nCDISC Description: A unit of measurement referring to one entity counted per one million entities.(NCI)_x005F_x000D_\nNCI preferred term: Part Per Million",
      "displayUnit": true,
      "endDate": null,
      "legacyCode": "ppm",
      "libraryName": "Sponsor",
      "masterUnit": false,
      "molecularWeightConvExpon": null,
      "name": "ppm",
      "order": 114,
      "siUnit": false,
      "startDate": "2022-07-06T19:28:12.330729",
      "status": "Final",
      "templateParameter": false,
      "ucum": {
        "name": "[ppm]",
        "termUid": "DictionaryTerm_000734"
      },
      "uid": "UnitDefinition_000109",
      "unitDimension": {
        "name": "Mass Fraction",
        "termUid": "C67470_MASS FRACTION"
      },
      "unitSubsets": [],
      "usConventionalUnit": false,
      "userInitials": "unknown-user",
      "version": "1.0"
    },
    {
      "changeDescription": "Approved version",
      "comment": "0",
      "conversionFactorToMaster": 0.001,
      "convertibleUnit": true,
      "ctUnits": [
        {
          "name": "Microgram per Kilogram",
          "termUid": "C67396_pg/mg"
        },
        {
          "name": "ug/kg",
          "termUid": "C67396_ug/kg"
        }
      ],
      "definition": "Sponsor defined: nanogram/gram.",
      "displayUnit": true,
      "endDate": null,
      "legacyCode": "ng/g",
      "libraryName": "Sponsor",
      "masterUnit": false,
      "molecularWeightConvExpon": 0,
      "name": "ng/g",
      "order": 129,
      "siUnit": false,
      "startDate": "2022-07-06T19:28:12.927370",
      "status": "Final",
      "templateParameter": false,
      "ucum": {
        "name": "ng/g",
        "termUid": "DictionaryTerm_000645"
      },
      "uid": "UnitDefinition_000111",
      "unitDimension": {
        "name": "Mass Fraction",
        "termUid": "C67470_MASS FRACTION"
      },
      "unitSubsets": [],
      "usConventionalUnit": true,
      "userInitials": "unknown-user",
      "version": "1.0"
    },
    {
      "changeDescription": "Approved version",
      "comment": "0",
      "conversionFactorToMaster": 1000.0,
      "convertibleUnit": true,
      "ctUnits": [
        {
          "name": "g/kg",
          "termUid": "C69104_g/kg"
        }
      ],
      "definition": "CDISC not found_x005F_x000D_\n",
      "displayUnit": true,
      "endDate": null,
      "legacyCode": "mg/g",
      "libraryName": "Sponsor",
      "masterUnit": false,
      "molecularWeightConvExpon": null,
      "name": "mg/g",
      "order": 131,
      "siUnit": false,
      "startDate": "2022-07-06T19:28:13.088085",
      "status": "Final",
      "templateParameter": false,
      "ucum": {
        "name": "mg/g",
        "termUid": "DictionaryTerm_000509"
      },
      "uid": "UnitDefinition_000112",
      "unitDimension": {
        "name": "Mass Fraction",
        "termUid": "C67470_MASS FRACTION"
      },
      "unitSubsets": [],
      "usConventionalUnit": true,
      "userInitials": "unknown-user",
      "version": "1.0"
    },
    {
      "changeDescription": "Approved version",
      "comment": "0",
      "conversionFactorToMaster": 1.0,
      "convertibleUnit": true,
      "ctUnits": [
        {
          "name": "nmol/mol",
          "termUid": "C122220_nmol/mol"
        }
      ],
      "definition": "CDISC code:C122220_x005F_x000D_\nCDISC submission value: nmol/mol_x005F_x000D_\nCDISC synonym(s): pmol/mmol_x005F_x000D_\nCDISC definition: A unit of fraction expressed as the ratio of the amount of a substance in solution, in nanomoles, to the amount of a different substance in the mixture, in moles._x005F_x000D_\nNCI preferred term: Nanomole per Mole_x005F_x000D_\n_x005F_x000D_\n",
      "displayUnit": true,
      "endDate": null,
      "legacyCode": "pmol/mmol",
      "libraryName": "Sponsor",
      "masterUnit": false,
      "molecularWeightConvExpon": 1,
      "name": "pmol/mmol",
      "order": 1,
      "siUnit": false,
      "startDate": "2022-07-06T19:28:13.336315",
      "status": "Final",
      "templateParameter": false,
      "ucum": null,
      "uid": "UnitDefinition_000113",
      "unitDimension": {
        "name": "Mass Fraction",
        "termUid": "C67470_MASS FRACTION"
      },
      "unitSubsets": [],
      "usConventionalUnit": true,
      "userInitials": "unknown-user",
      "version": "1.0"
    },
    {
      "changeDescription": "Approved version",
      "comment": "0",
      "conversionFactorToMaster": 1.0,
      "convertibleUnit": true,
      "ctUnits": [
        {
          "name": "mg/kg",
          "termUid": "C67401_mg/kg"
        }
      ],
      "definition": "CDISC controlled terminology version 2013-04-12_x005F_x000D_\nCDISC code: C85744_x005F_x000D_\nCDISC submission value: ug/g Creatinine_x005F_x000D_\nCDISC synonym(s)_x005F_x000D_\nCDISC definition: Nanograms per milligram of creatinine._x005F_x000D_\nNCI preferred term: Microgram Per Gram of Creatinine_x005F_x000D_\n_x005F_x000D_\nCDISC controlled terminology version 2015-12-18 _x005F_x000D_\nCDISC code: C85780_x005F_x000D_\nCDISC submission value: pg/mg Creatinine_x005F_x000D_\nCDISC synonym(s): ng/g of Creatinine; pg/mg of Creatinine_x005F_x000D_\nCDISC definition: Picograms per milligram creatinine._x005F_x000D_\nNCI preferred term: Picogram per Milligram of Creatinine",
      "displayUnit": true,
      "endDate": null,
      "legacyCode": "ug/g creatinine",
      "libraryName": "Sponsor",
      "masterUnit": false,
      "molecularWeightConvExpon": null,
      "name": "ug/g creatinine",
      "order": 130,
      "siUnit": false,
      "startDate": "2022-07-06T19:28:13.841751",
      "status": "Final",
      "templateParameter": false,
      "ucum": {
        "name": "ug/g",
        "termUid": "DictionaryTerm_000388"
      },
      "uid": "UnitDefinition_000115",
      "unitDimension": {
        "name": "Mass Fraction",
        "termUid": "C67470_MASS FRACTION"
      },
      "unitSubsets": [],
      "usConventionalUnit": true,
      "userInitials": "unknown-user",
      "version": "1.0"
    },
    {
      "changeDescription": "Approved version",
      "comment": "0",
      "conversionFactorToMaster": 1.0,
      "convertibleUnit": true,
      "ctUnits": [
        {
          "name": "mg/kg",
          "termUid": "C67401_mg/kg"
        }
      ],
      "definition": "CDISC code: C67401 (CDISC CT version 2017-03-31)_x005F_x000D_\nCDISC submission value: mg/kg_x005F_x000D_\nCDISC synonym(s):  Milligram per Kilogram; ug/g_x005F_x000D_\nCDISC definition: A unit of a mass fraction expressed as a number of milligrams of substance per kilogram of mixture. The unit is also used as a dose calculation unit.(NCI)_x005F_x000D_\nNCI preferred term: Milligram per Kilogram",
      "displayUnit": true,
      "endDate": null,
      "legacyCode": "ug/g",
      "libraryName": "Sponsor",
      "masterUnit": false,
      "molecularWeightConvExpon": null,
      "name": "ug/g",
      "order": 131,
      "siUnit": false,
      "startDate": "2022-07-06T19:28:14.121107",
      "status": "Final",
      "templateParameter": false,
      "ucum": {
        "name": "ug/g",
        "termUid": "DictionaryTerm_000388"
      },
      "uid": "UnitDefinition_000116",
      "unitDimension": {
        "name": "Mass Fraction",
        "termUid": "C67470_MASS FRACTION"
      },
      "unitSubsets": [],
      "usConventionalUnit": true,
      "userInitials": "unknown-user",
      "version": "1.0"
    },
    {
      "changeDescription": "Approved version",
      "comment": "In its current use NN defines mcg=ug as confirmed by CHHE. But UCUM defines it as mcg/g=millicentigram/gram. There is a factor 10 difference. This means that mcg/g is defined as and linked to mg/kg (ug/g). ",
      "conversionFactorToMaster": 1.0,
      "convertibleUnit": true,
      "ctUnits": [
        {
          "name": "mg/kg",
          "termUid": "C67401_mg/kg"
        }
      ],
      "definition": "Micrograms per gram.",
      "displayUnit": true,
      "endDate": null,
      "legacyCode": "mcg/g",
      "libraryName": "Sponsor",
      "masterUnit": false,
      "molecularWeightConvExpon": 0,
      "name": "mcg/g",
      "order": 1,
      "siUnit": false,
      "startDate": "2022-07-06T19:28:14.348645",
      "status": "Final",
      "templateParameter": false,
      "ucum": {
        "name": "ug/g",
        "termUid": "DictionaryTerm_000388"
      },
      "uid": "UnitDefinition_000117",
      "unitDimension": {
        "name": "Mass Fraction",
        "termUid": "C67470_MASS FRACTION"
      },
      "unitSubsets": [],
      "usConventionalUnit": true,
      "userInitials": "unknown-user",
      "version": "1.0"
    },
    {
      "changeDescription": "Approved version",
      "comment": "0",
      "conversionFactorToMaster": 1.0,
      "convertibleUnit": true,
      "ctUnits": [
        {
          "name": "g/kg",
          "termUid": "C69104_g/kg"
        }
      ],
      "definition": "CDISC code: C69104_x005F_x000D_\nCDISC submission value: g/kg_x005F_x000D_\nCDISC synonym(s): Gram per Kilogram; Milligram per Gram; mg/g_x005F_x000D_\nCDISC definition: A unit of a mass fraction expressed as a number of grams of substance per kilogram of mixture. The unit is also used as a dose calculation unit.(NCI)_x005F_x000D_\nNCI preferred term: Gram per Kilogram",
      "displayUnit": true,
      "endDate": null,
      "legacyCode": "g/kg",
      "libraryName": "Sponsor",
      "masterUnit": false,
      "molecularWeightConvExpon": null,
      "name": "g/kg",
      "order": 120,
      "siUnit": false,
      "startDate": "2022-07-06T19:28:14.442330",
      "status": "Final",
      "templateParameter": false,
      "ucum": null,
      "uid": "UnitDefinition_000118",
      "unitDimension": {
        "name": "Mass Fraction",
        "termUid": "C67470_MASS FRACTION"
      },
      "unitSubsets": [],
      "usConventionalUnit": true,
      "userInitials": "unknown-user",
      "version": "1.0"
    },
    {
      "changeDescription": "Approved version",
      "comment": "0",
      "conversionFactorToMaster": 1.0,
      "convertibleUnit": true,
      "ctUnits": [
        {
          "name": "mg/kg",
          "termUid": "C67401_mg/kg"
        }
      ],
      "definition": "",
      "displayUnit": true,
      "endDate": null,
      "legacyCode": "pg/ug",
      "libraryName": "Sponsor",
      "masterUnit": false,
      "molecularWeightConvExpon": null,
      "name": "pg/ug",
      "order": 129,
      "siUnit": false,
      "startDate": "2022-07-06T19:28:14.663181",
      "status": "Final",
      "templateParameter": false,
      "ucum": null,
      "uid": "UnitDefinition_000119",
      "unitDimension": {
        "name": "Mass Fraction",
        "termUid": "C67470_MASS FRACTION"
      },
      "unitSubsets": [],
      "usConventionalUnit": true,
      "userInitials": "unknown-user",
      "version": "1.0"
    },
    {
      "changeDescription": "Approved version",
      "comment": "0",
      "conversionFactorToMaster": 1000.0,
      "convertibleUnit": true,
      "ctUnits": [
        {
          "name": "g/kg",
          "termUid": "C69104_g/kg"
        }
      ],
      "definition": "mg/g Creatinine",
      "displayUnit": true,
      "endDate": null,
      "legacyCode": "mg/g Creatinine",
      "libraryName": "Sponsor",
      "masterUnit": false,
      "molecularWeightConvExpon": null,
      "name": "mg/g Creatinine",
      "order": 1,
      "siUnit": false,
      "startDate": "2022-07-06T19:28:15.010331",
      "status": "Final",
      "templateParameter": false,
      "ucum": {
        "name": "mg/g",
        "termUid": "DictionaryTerm_000509"
      },
      "uid": "UnitDefinition_000120",
      "unitDimension": {
        "name": "Mass Fraction",
        "termUid": "C67470_MASS FRACTION"
      },
      "unitSubsets": [],
      "usConventionalUnit": true,
      "userInitials": "unknown-user",
      "version": "1.0"
    },
    {
      "changeDescription": "Approved version",
      "comment": "0",
      "conversionFactorToMaster": 1000.0,
      "convertibleUnit": true,
      "ctUnits": [
        {
          "name": "mmol/mol",
          "termUid": "C111253_mmol/mol"
        }
      ],
      "definition": "mmol/mol. New unit to report HBA1c in._x005F_x000D_\n",
      "displayUnit": true,
      "endDate": null,
      "legacyCode": "mmol/mol",
      "libraryName": "Sponsor",
      "masterUnit": false,
      "molecularWeightConvExpon": 1,
      "name": "mmol/mol",
      "order": 1520,
      "siUnit": false,
      "startDate": "2022-07-06T19:28:15.043584",
      "status": "Final",
      "templateParameter": false,
      "ucum": {
        "name": "mmol/mol",
        "termUid": "DictionaryTerm_000596"
      },
      "uid": "UnitDefinition_000121",
      "unitDimension": {
        "name": "Mass Fraction",
        "termUid": "C67470_MASS FRACTION"
      },
      "unitSubsets": [],
      "usConventionalUnit": true,
      "userInitials": "unknown-user",
      "version": "1.0"
    },
    {
      "changeDescription": "Approved version",
      "comment": "0",
      "conversionFactorToMaster": 1.0,
      "convertibleUnit": false,
      "ctUnits": [
        {
          "name": "/LPF",
          "termUid": "C96620_/LPF"
        }
      ],
      "definition": "CDISC code: C96620_x005F_x000D_\nCDISC submission value: /LPF_x005F_x000D_\nCDISC synonym(s): per Low Powered Field_x005F_x000D_\nCDISC definition: A unit of measure equal to the instances of an entity per visual field of a microscope set to its minimum magnification power._x005F_x000D_\nNCI preferred term: Per Low Powered Field",
      "displayUnit": true,
      "endDate": null,
      "legacyCode": "/LPF",
      "libraryName": "Sponsor",
      "masterUnit": false,
      "molecularWeightConvExpon": null,
      "name": "/LPF",
      "order": 136,
      "siUnit": false,
      "startDate": "2022-07-06T19:28:15.253369",
      "status": "Final",
      "templateParameter": false,
      "ucum": {
        "name": "/[LPF]",
        "termUid": "DictionaryTerm_000766"
      },
      "uid": "UnitDefinition_000122",
      "unitDimension": {
        "name": "Microscope dependent counts",
        "termUid": "CTTerm_000232"
      },
      "unitSubsets": [],
      "usConventionalUnit": false,
      "userInitials": "unknown-user",
      "version": "1.0"
    },
    {
      "changeDescription": "Approved version",
      "comment": "0",
      "conversionFactorToMaster": 1.0,
      "convertibleUnit": true,
      "ctUnits": [
        {
          "name": "/HPF",
          "termUid": "C96619_/HPF"
        }
      ],
      "definition": "CDISC code: C96619_x005F_x000D_\nCDISC submission value: /HPF_x005F_x000D_\nCDISC synonym(s): per High Powered Field_x005F_x000D_\nCDISC definition: A unit of measure equal to the instances of an entity per visual field of a microscope set to its maximum magnification power._x005F_x000D_\nNCI preferred term: Per High Powered Field",
      "displayUnit": true,
      "endDate": null,
      "legacyCode": "/HPF",
      "libraryName": "Sponsor",
      "masterUnit": true,
      "molecularWeightConvExpon": null,
      "name": "/HPF",
      "order": 136,
      "siUnit": false,
      "startDate": "2022-07-06T19:28:15.578994",
      "status": "Final",
      "templateParameter": false,
      "ucum": {
        "name": "/[HPF]",
        "termUid": "DictionaryTerm_000760"
      },
      "uid": "UnitDefinition_000123",
      "unitDimension": {
        "name": "Microscope dependent counts",
        "termUid": "CTTerm_000232"
      },
      "unitSubsets": [],
      "usConventionalUnit": true,
      "userInitials": "unknown-user",
      "version": "1.0"
    },
    {
      "changeDescription": "Approved version",
      "comment": "0",
      "conversionFactorToMaster": 1.0,
      "convertibleUnit": true,
      "ctUnits": [
        {
          "name": "Absorbance U",
          "termUid": "C73686_Absorbance U"
        }
      ],
      "definition": "CDISC code: C73686_x005F_x000D_\nCDISC submission value: Absorbance U_x005F_x000D_\nCDISC synonym: Absorbance Unit_x005F_x000D_\nCDISC Description: A unit of optical density expressed as a logarithm of absorbance of light transmitted through a partially absorbing substance.",
      "displayUnit": true,
      "endDate": null,
      "legacyCode": "Absorbance U",
      "libraryName": "Sponsor",
      "masterUnit": true,
      "molecularWeightConvExpon": null,
      "name": "Absorbance U",
      "order": 1510,
      "siUnit": false,
      "startDate": "2022-07-06T19:28:15.766991",
      "status": "Final",
      "templateParameter": false,
      "ucum": {
        "name": "U",
        "termUid": "DictionaryTerm_000161"
      },
      "uid": "UnitDefinition_000124",
      "unitDimension": {
        "name": "Optical Density",
        "termUid": "CTTerm_000230"
      },
      "unitSubsets": [],
      "usConventionalUnit": true,
      "userInitials": "unknown-user",
      "version": "1.0"
    },
    {
      "changeDescription": "Approved version",
      "comment": "0",
      "conversionFactorToMaster": 0.001,
      "convertibleUnit": true,
      "ctUnits": [
        {
          "name": "mOsm/kg",
          "termUid": "C67427_mOsm/kg"
        }
      ],
      "definition": "CDISC code: C67427_x005F_x000D_\nCDISC submission value: mOsm/kg_x005F_x000D_\nCDISC synonym: Milliosmole per Kilogram_x005F_x000D_\nCDISC Description: A unit of osmotic pressure equal to one thousandth of an osmole per kilogram substance._x005F_x000D_\nNCI preferred term: mOsm/kg",
      "displayUnit": true,
      "endDate": null,
      "legacyCode": "mOsm/kg",
      "libraryName": "Sponsor",
      "masterUnit": false,
      "molecularWeightConvExpon": null,
      "name": "mOsm/kg",
      "order": 115,
      "siUnit": false,
      "startDate": "2022-07-06T19:28:16.158304",
      "status": "Final",
      "templateParameter": false,
      "ucum": {
        "name": "mosm/kg",
        "termUid": "DictionaryTerm_000611"
      },
      "uid": "UnitDefinition_000125",
      "unitDimension": {
        "name": "Osmolality",
        "termUid": "CTTerm_000229"
      },
      "unitSubsets": [],
      "usConventionalUnit": true,
      "userInitials": "unknown-user",
      "version": "1.0"
    },
    {
      "changeDescription": "Approved version",
      "comment": "Ratio is the quotient of one quantity divided by another, with the same units of measurement and is therefore dimensionless as the units cancel each other out. CDISC has defined it as a unit but can\u00c2\u00b4t be verified by UCUM. ",
      "conversionFactorToMaster": 100.0,
      "convertibleUnit": true,
      "ctUnits": [
        {
          "name": "RATIO",
          "termUid": "C44256_RATIO"
        }
      ],
      "definition": "<CodeLists>_x005F_x000D_\n<CodeList Value=\"UNIT\"></CodeList>_x005F_x000D_\n<CodeList Value=\"VSRESU\" CodeSubmValue=\"RATIO\"></CodeList>_x005F_x000D_\n</CodeLists>_x005F_x000D_\nCDISC code: C44256_x005F_x000D_\nCDISC submission value: RATIO_x005F_x000D_\nCDISC synonym: _x005F_x000D_\nCDISC Description: A unit of measurement for the quotient of the amount of one entity to another._x005F_x000D_\nNCI preferred term: ratio_x005F_x000D_\n",
      "displayUnit": true,
      "endDate": null,
      "legacyCode": "ratio",
      "libraryName": "Sponsor",
      "masterUnit": false,
      "molecularWeightConvExpon": null,
      "name": "ratio",
      "order": 1520,
      "siUnit": false,
      "startDate": "2022-07-06T19:28:16.180866",
      "status": "Final",
      "templateParameter": false,
      "ucum": null,
      "uid": "UnitDefinition_000126",
      "unitDimension": {
        "name": "Percentage",
        "termUid": "CTTerm_000228"
      },
      "unitSubsets": [],
      "usConventionalUnit": true,
      "userInitials": "unknown-user",
      "version": "1.0"
    },
    {
      "changeDescription": "Approved version",
      "comment": "0",
      "conversionFactorToMaster": 1.0,
      "convertibleUnit": false,
      "ctUnits": [
        {
          "name": "min/day",
          "termUid": "C176381_min/day"
        }
      ],
      "definition": "A unit of amount of time per day equal to minutes per day_x005F_x000D_\n",
      "displayUnit": true,
      "endDate": null,
      "legacyCode": "min/day",
      "libraryName": "Sponsor",
      "masterUnit": false,
      "molecularWeightConvExpon": null,
      "name": "min/day",
      "order": 150,
      "siUnit": false,
      "startDate": "2022-07-06T19:28:16.412608",
      "status": "Final",
      "templateParameter": false,
      "ucum": {
        "name": "min/d",
        "termUid": "DictionaryTerm_000621"
      },
      "uid": "UnitDefinition_000127",
      "unitDimension": {
        "name": "Percentage",
        "termUid": "CTTerm_000228"
      },
      "unitSubsets": [],
      "usConventionalUnit": false,
      "userInitials": "unknown-user",
      "version": "1.0"
    },
    {
      "changeDescription": "Approved version",
      "comment": "0",
      "conversionFactorToMaster": 100.0,
      "convertibleUnit": true,
      "ctUnits": [
        {
          "name": "L/L",
          "termUid": "C105495_L/L"
        }
      ],
      "definition": "CDISC code: C105495_x005F_x000D_\nCDISC submission value: L/L_x005F_x000D_\nCDISC synonym: Liter per Liter; mL/mL; uL/uL; dL/dL_x005F_x000D_\nCDISC Description: A unit of volume concentration equal to the number of liters per unit of volume equal to one liter._x005F_x000D_\nNCI preferred term: Liter Per Liter",
      "displayUnit": true,
      "endDate": null,
      "legacyCode": "L/L",
      "libraryName": "Sponsor",
      "masterUnit": false,
      "molecularWeightConvExpon": null,
      "name": "L/L",
      "order": 1520,
      "siUnit": false,
      "startDate": "2022-07-06T19:28:16.464460",
      "status": "Final",
      "templateParameter": false,
      "ucum": {
        "name": "L/L",
        "termUid": "DictionaryTerm_000349"
      },
      "uid": "UnitDefinition_000128",
      "unitDimension": {
        "name": "Percentage",
        "termUid": "CTTerm_000228"
      },
      "unitSubsets": [],
      "usConventionalUnit": true,
      "userInitials": "unknown-user",
      "version": "1.0"
    },
    {
      "changeDescription": "Approved version",
      "comment": "\"Fraction of 1\" or \"Proportion of 1\"? CDISC defines it as \"A unit for expressing a percentage as a decimal\"\u00e2\u20ac\u00a6.",
      "conversionFactorToMaster": 100.0,
      "convertibleUnit": true,
      "ctUnits": [
        {
          "name": "fraction of 1",
          "termUid": "C105484_fraction of 1"
        }
      ],
      "definition": "CDISC code: C105484_x005F_x000D_\nCDISC submission value: fraction of 1_x005F_x000D_\nCDISC synonym: Proportion of 1 (SDTM CT 2017-12-22) _x005F_x000D_\nCDISC Description: A unit for expressing a percentage as a decimal whereby the total value is measured as a fraction of the numeric 1._x005F_x000D_\n",
      "displayUnit": true,
      "endDate": null,
      "legacyCode": "Proportion of 1",
      "libraryName": "Sponsor",
      "masterUnit": false,
      "molecularWeightConvExpon": null,
      "name": "Proportion of 1",
      "order": 1520,
      "siUnit": true,
      "startDate": "2022-07-06T19:28:16.732568",
      "status": "Final",
      "templateParameter": false,
      "ucum": null,
      "uid": "UnitDefinition_000129",
      "unitDimension": {
        "name": "Percentage",
        "termUid": "CTTerm_000228"
      },
      "unitSubsets": [],
      "usConventionalUnit": true,
      "userInitials": "unknown-user",
      "version": "1.0"
    },
    {
      "changeDescription": "Approved version",
      "comment": "0",
      "conversionFactorToMaster": 1.0,
      "convertibleUnit": true,
      "ctUnits": [
        {
          "name": "%",
          "termUid": "C25613_%"
        }
      ],
      "definition": "<CodeLists>_x005F_x000D_\n<CodeList Value=\"UNIT\"></CodeList>_x005F_x000D_\n<CodeList Value=\"VSRESU\"></CodeList>_x005F_x000D_\n</CodeLists>_x005F_x000D_\nCDISC code: C25613_x005F_x000D_\nCDISC submission value: %_x005F_x000D_\nCDISC synonym: Percentage_x005F_x000D_\nCDISC Description: A fraction or ratio with 100 understood as the denominator. (NCI)_x005F_x000D_\nNCI preferred term: Percentage_x005F_x000D_\n",
      "displayUnit": true,
      "endDate": null,
      "legacyCode": "%",
      "libraryName": "Sponsor",
      "masterUnit": true,
      "molecularWeightConvExpon": null,
      "name": "%",
      "order": 1520,
      "siUnit": false,
      "startDate": "2022-07-06T19:28:17.307534",
      "status": "Final",
      "templateParameter": false,
      "ucum": {
        "name": "%",
        "termUid": "DictionaryTerm_000785"
      },
      "uid": "UnitDefinition_000130",
      "unitDimension": {
        "name": "Percentage",
        "termUid": "CTTerm_000228"
      },
      "unitSubsets": [],
      "usConventionalUnit": true,
      "userInitials": "unknown-user",
      "version": "1.0"
    },
    {
      "changeDescription": "Approved version",
      "comment": "0",
      "conversionFactorToMaster": 133.3222,
      "convertibleUnit": true,
      "ctUnits": [
        {
          "name": "mmHg",
          "termUid": "C49670_mmHg"
        }
      ],
      "definition": "<CodeLists>_x005F_x000D_\n<CodeList Value=\"UNIT\"></CodeList>_x005F_x000D_\n<CodeList Value=\"VSRESU\"></CodeList>_x005F_x000D_\n</CodeLists>",
      "displayUnit": true,
      "endDate": null,
      "legacyCode": "mmHg",
      "libraryName": "Sponsor",
      "masterUnit": false,
      "molecularWeightConvExpon": null,
      "name": "mmHg",
      "order": 1550,
      "siUnit": true,
      "startDate": "2022-07-06T19:28:17.543911",
      "status": "Final",
      "templateParameter": false,
      "ucum": {
        "name": "mm[Hg]",
        "termUid": "DictionaryTerm_000566"
      },
      "uid": "UnitDefinition_000131",
      "unitDimension": {
        "name": "Pressure",
        "termUid": "CTTerm_000257"
      },
      "unitSubsets": [],
      "usConventionalUnit": true,
      "userInitials": "unknown-user",
      "version": "1.0"
    },
    {
      "changeDescription": "Approved version",
      "comment": "0",
      "conversionFactorToMaster": 1.0,
      "convertibleUnit": true,
      "ctUnits": [
        {
          "name": "Pa",
          "termUid": "C42547_Pa"
        }
      ],
      "definition": "CDISC code: C42547_x005F_x000D_\nCDISC submission value: Pa_x005F_x000D_\nCDISC synonym: Pascal_x005F_x000D_\nCDISC Description: A unit of pressure equivalent to one Newton per square meter or 10 bars or to 1.45x10(E-4) pounds per square inch.(NCI)_x005F_x000D_\nNCI preferred term: Pascal",
      "displayUnit": true,
      "endDate": null,
      "legacyCode": "Pa",
      "libraryName": "Sponsor",
      "masterUnit": true,
      "molecularWeightConvExpon": null,
      "name": "Pa",
      "order": 1550,
      "siUnit": true,
      "startDate": "2022-07-06T19:28:17.727018",
      "status": "Final",
      "templateParameter": false,
      "ucum": {
        "name": "Pa",
        "termUid": "DictionaryTerm_000738"
      },
      "uid": "UnitDefinition_000132",
      "unitDimension": {
        "name": "Pressure",
        "termUid": "CTTerm_000257"
      },
      "unitSubsets": [],
      "usConventionalUnit": true,
      "userInitials": "unknown-user",
      "version": "1.0"
    },
    {
      "changeDescription": "Approved version",
      "comment": "0",
      "conversionFactorToMaster": 1000.0,
      "convertibleUnit": true,
      "ctUnits": [
        {
          "name": "kPa",
          "termUid": "C67284_kPa"
        }
      ],
      "definition": "CDISC code: C67284_x005F_x000D_\nCDISC submission value: kPa_x005F_x000D_\nCDISC synonym(s): Kilopascal_x005F_x000D_\nCDISC definition: A SI derived unit of pressure equivalent to 1000 newtons per square meter or 10000 bars or to 0.145 pound per square inch. (NCI)_x005F_x000D_\nNCI preferred term: Kilopascal",
      "displayUnit": true,
      "endDate": null,
      "legacyCode": "kPa",
      "libraryName": "Sponsor",
      "masterUnit": false,
      "molecularWeightConvExpon": null,
      "name": "kPa",
      "order": 1550,
      "siUnit": true,
      "startDate": "2022-07-06T19:28:18.003375",
      "status": "Final",
      "templateParameter": false,
      "ucum": {
        "name": "kPa",
        "termUid": "DictionaryTerm_000338"
      },
      "uid": "UnitDefinition_000133",
      "unitDimension": {
        "name": "Pressure",
        "termUid": "CTTerm_000257"
      },
      "unitSubsets": [],
      "usConventionalUnit": true,
      "userInitials": "unknown-user",
      "version": "1.0"
    },
    {
      "changeDescription": "Approved version",
      "comment": "0",
      "conversionFactorToMaster": 1000000.0,
      "convertibleUnit": true,
      "ctUnits": [
        {
          "name": "MBq",
          "termUid": "C70512_MBq"
        }
      ],
      "definition": "CDISC code: C70512_x005F_x000D_\nCDISC submission value: MBq_x005F_x000D_\nCDISC synonym(s):  Megabecquerel_x005F_x000D_\nCDISC definition: A unit of radioactivity equal to one million nuclear disintegrations or other nuclear transformations per second, or to 10E6 Becquerels.(NCI)_x005F_x000D_\nNCI preferred term: Megabecquerel_x005F_x000D_\n",
      "displayUnit": true,
      "endDate": null,
      "legacyCode": "MBq",
      "libraryName": "Sponsor",
      "masterUnit": false,
      "molecularWeightConvExpon": 0,
      "name": "MBq",
      "order": 1720,
      "siUnit": false,
      "startDate": "2022-07-06T19:28:18.144051",
      "status": "Final",
      "templateParameter": false,
      "ucum": null,
      "uid": "UnitDefinition_000134",
      "unitDimension": {
        "name": "Radioactivity",
        "termUid": "CTTerm_000226"
      },
      "unitSubsets": [],
      "usConventionalUnit": true,
      "userInitials": "unknown-user",
      "version": "1.0"
    },
    {
      "changeDescription": "Approved version",
      "comment": "0",
      "conversionFactorToMaster": 1.0,
      "convertibleUnit": true,
      "ctUnits": [
        {
          "name": "Bq",
          "termUid": "C42562_Bq"
        }
      ],
      "definition": "CDISC code: C42562_x005F_x000D_\nCDISC submission value: Bq_x005F_x000D_\nCDISC synonym: Becquerel_x005F_x000D_\nCDISC Description: A unit of activity of a radionuclide, equal to one nuclear disintegration or other nuclear transition from a particular energy state occurring in an amount of a radionuclide during one second-long time interval.(NCI)_x005F_x000D_\nNCI preferred term: Becquerel",
      "displayUnit": true,
      "endDate": null,
      "legacyCode": "Bq",
      "libraryName": "Sponsor",
      "masterUnit": true,
      "molecularWeightConvExpon": null,
      "name": "Bq",
      "order": 1710,
      "siUnit": false,
      "startDate": "2022-07-06T19:28:18.501889",
      "status": "Final",
      "templateParameter": false,
      "ucum": {
        "name": "Bq",
        "termUid": "DictionaryTerm_000088"
      },
      "uid": "UnitDefinition_000136",
      "unitDimension": {
        "name": "Radioactivity",
        "termUid": "CTTerm_000226"
      },
      "unitSubsets": [],
      "usConventionalUnit": true,
      "userInitials": "unknown-user",
      "version": "1.0"
    },
    {
      "changeDescription": "Approved version",
      "comment": "0",
      "conversionFactorToMaster": 0.041666667,
      "convertibleUnit": true,
      "ctUnits": [
        {
          "name": "Milliliter per Kilogram per Day",
          "termUid": "C73758_(mL/day)/kg"
        },
        {
          "name": "mL/kg/day",
          "termUid": "C73758_mL/kg/day"
        }
      ],
      "definition": "Days times micrograms per milliliter (area under the curve)._x005F_x000D_\nCDISC code:C73758_x005F_x000D_\nCDISC submission value: (mL/day)/kg_x005F_x000D_\nCDISC synonym(s): (mL/day)/kg; mL/kg/day_x005F_x000D_\nCDISC definition: Milliliters per kilogram per day or milliliters per day (flow rate), divided by kilograms (weight)._x005F_x000D_\nNCI preferred term: Milliliter per Kilogram per Day_x005F_x000D_\n",
      "displayUnit": true,
      "endDate": null,
      "legacyCode": "(mL/day)/kg",
      "libraryName": "Sponsor",
      "masterUnit": false,
      "molecularWeightConvExpon": null,
      "name": "(mL/day)/kg",
      "order": 2002,
      "siUnit": false,
      "startDate": "2022-07-06T19:28:19.140948",
      "status": "Final",
      "templateParameter": false,
      "ucum": null,
      "uid": "UnitDefinition_000138",
      "unitDimension": {
        "name": "Relative flow rate",
        "termUid": "CTTerm_000224"
      },
      "unitSubsets": [],
      "usConventionalUnit": true,
      "userInitials": "unknown-user",
      "version": "1.0"
    },
    {
      "changeDescription": "Approved version",
      "comment": "0",
      "conversionFactorToMaster": 60000.0,
      "convertibleUnit": true,
      "ctUnits": [
        {
          "name": "mL/g/min",
          "termUid": "C73757_mL/g/min"
        }
      ],
      "definition": "Milliliters per gram per minute or liters per minute (flow rate), divided by kilograms (weight) or milliliters per minute (flow rate), divided by grams (weight).",
      "displayUnit": true,
      "endDate": null,
      "legacyCode": "mL/g/min",
      "libraryName": "Sponsor",
      "masterUnit": false,
      "molecularWeightConvExpon": null,
      "name": "mL/g/min",
      "order": 1,
      "siUnit": false,
      "startDate": "2022-07-06T19:28:19.360638",
      "status": "Final",
      "templateParameter": false,
      "ucum": null,
      "uid": "UnitDefinition_000139",
      "unitDimension": {
        "name": "Relative flow rate",
        "termUid": "CTTerm_000224"
      },
      "unitSubsets": [],
      "usConventionalUnit": true,
      "userInitials": "unknown-user",
      "version": "1.0"
    },
    {
      "changeDescription": "Approved version",
      "comment": "0",
      "conversionFactorToMaster": 1.0,
      "convertibleUnit": true,
      "ctUnits": [
        {
          "name": "mg/kg/min",
          "termUid": "C71207_mg/kg/min"
        }
      ],
      "definition": "CDISC code: C71207_x005F_x000D_\nCDISC submission value: mg/kg/min_x005F_x000D_\nCDISC synonym: Milligram per Kilogram per Minute_x005F_x000D_\nCDISC Description: A dose calculation unit equal to one thousandth of a gram of a preparation per one kilogram of body mass administered per unit of time equal to one minute.(NCI)_x005F_x000D_\nNCI preferred term: Milligram per Kilogram per Minute",
      "displayUnit": true,
      "endDate": null,
      "legacyCode": "mg/(kg*min)",
      "libraryName": "Sponsor",
      "masterUnit": true,
      "molecularWeightConvExpon": null,
      "name": "mg/(kg*min)",
      "order": 1735,
      "siUnit": false,
      "startDate": "2022-07-06T19:28:19.949127",
      "status": "Final",
      "templateParameter": false,
      "ucum": null,
      "uid": "UnitDefinition_000140",
      "unitDimension": {
        "name": "Relative Mass Flow Rate",
        "termUid": "CTTerm_000227"
      },
      "unitSubsets": [],
      "usConventionalUnit": true,
      "userInitials": "unknown-user",
      "version": "1.0"
    },
    {
      "changeDescription": "Approved version",
      "comment": "0",
      "conversionFactorToMaster": 1.0,
      "convertibleUnit": true,
      "ctUnits": [
        {
          "name": "mg/kg/min",
          "termUid": "C71207_mg/kg/min"
        }
      ],
      "definition": "CDISC code: C71207_x005F_x000D_\nCDISC submission value: mg/kg/min_x005F_x000D_\nCDISC synonym: Milligram per Kilogram per Minute_x005F_x000D_\nCDISC Description: A dose calculation unit equal to one thousandth of a gram of a preparation per one kilogram of body mass administered per unit of time equal to one minute.(NCI)_x005F_x000D_\nNCI preferred term: Milligram per Kilogram per Minute",
      "displayUnit": true,
      "endDate": null,
      "legacyCode": "mg/kg/min",
      "libraryName": "Sponsor",
      "masterUnit": false,
      "molecularWeightConvExpon": null,
      "name": "mg/kg/min",
      "order": 1735,
      "siUnit": false,
      "startDate": "2022-07-06T19:28:20.149280",
      "status": "Final",
      "templateParameter": false,
      "ucum": {
        "name": "mg/kg/min",
        "termUid": "DictionaryTerm_000520"
      },
      "uid": "UnitDefinition_000141",
      "unitDimension": {
        "name": "Relative Mass Flow Rate",
        "termUid": "CTTerm_000227"
      },
      "unitSubsets": [],
      "usConventionalUnit": true,
      "userInitials": "unknown-user",
      "version": "1.0"
    },
    {
      "changeDescription": "Approved version",
      "comment": "0",
      "conversionFactorToMaster": 0.0166667,
      "convertibleUnit": true,
      "ctUnits": [
        {
          "name": "mg/kg/h",
          "termUid": "C71362_mg/kg/h"
        }
      ],
      "definition": "SDTM Terminology 2017-06-30_x005F_x000D_\nCode:C71362_x005F_x000D_\nCDISC Code Value: mg/kg/h_x005F_x000D_\nCDISC Value Label: mg/kg/h_x005F_x000D_\nCDISC synonym(s): Milligram per Kilogram per Hour_x005F_x000D_\nCDISC definition: _x005F_x000D_\nA dose calculation unit equal to one thousandth of a gram of a preparation per one kilogram of body mass administered per unit of ti_x005F_x000D_\nme equal to one hour.(NCI)_x005F_x000D_\nNCI preferred term: Milligram per Kilogram per Hour_x005F_x000D_\n",
      "displayUnit": true,
      "endDate": null,
      "legacyCode": "mg/(kg*h)",
      "libraryName": "Sponsor",
      "masterUnit": false,
      "molecularWeightConvExpon": 0,
      "name": "mg/(kg*h)",
      "order": 1735,
      "siUnit": false,
      "startDate": "2022-07-06T19:28:20.434688",
      "status": "Final",
      "templateParameter": false,
      "ucum": null,
      "uid": "UnitDefinition_000142",
      "unitDimension": {
        "name": "Relative Mass Flow Rate",
        "termUid": "CTTerm_000227"
      },
      "unitSubsets": [],
      "usConventionalUnit": true,
      "userInitials": "unknown-user",
      "version": "1.0"
    },
    {
      "changeDescription": "Approved version",
      "comment": "0",
      "conversionFactorToMaster": 1.0,
      "convertibleUnit": true,
      "ctUnits": [
        {
          "name": "mL/kg",
          "termUid": "C67411_mL/kg"
        }
      ],
      "definition": "CDISC code: C67411_x005F_x000D_\nCDISC submission value: mL/kg_x005F_x000D_\nCDISC synonym: Milliliter per Kilogram_x005F_x000D_\nCDISC Description: A dose calculation unit equal to one milliliter of preparation per one kilogram of body mass. (NCI)_x005F_x000D_\nNCI preferred term: mL/kg",
      "displayUnit": true,
      "endDate": null,
      "legacyCode": "mL/kg",
      "libraryName": "Sponsor",
      "masterUnit": true,
      "molecularWeightConvExpon": null,
      "name": "mL/kg",
      "order": 1740,
      "siUnit": false,
      "startDate": "2022-07-06T19:28:20.645465",
      "status": "Final",
      "templateParameter": false,
      "ucum": {
        "name": "mL/kg",
        "termUid": "DictionaryTerm_000552"
      },
      "uid": "UnitDefinition_000143",
      "unitDimension": {
        "name": "Relative volume",
        "termUid": "CTTerm_000223"
      },
      "unitSubsets": [],
      "usConventionalUnit": true,
      "userInitials": "unknown-user",
      "version": "1.0"
    },
    {
      "changeDescription": "Approved version",
      "comment": "0",
      "conversionFactorToMaster": 1e-12,
      "convertibleUnit": true,
      "ctUnits": [
        {
          "name": "Nanomole per Kilogram",
          "termUid": "C85754_nmol/kg"
        },
        {
          "name": "pmol/g",
          "termUid": "C85754_pmol/g"
        }
      ],
      "definition": "<CodeLists>_x005F_x000D_\n<CodeList Value=\"PKUNIT\"></CodeList>_x005F_x000D_\n</CodeLists>_x005F_x000D_\nCDISC code: C85754_x005F_x000D_\nCDISC submission value: nmol/kg_x005F_x000D_\nCDISC synonym(s): pmol/g; nmol/kg _x005F_x000D_\nCDISC definition: Nanomoles per kilogram. _x005F_x000D_\nNCI preferred term: Nanomole per Kilogram",
      "displayUnit": true,
      "endDate": null,
      "legacyCode": "nmol/kg",
      "libraryName": "Sponsor",
      "masterUnit": false,
      "molecularWeightConvExpon": 1,
      "name": "nmol/kg",
      "order": 1750,
      "siUnit": false,
      "startDate": "2022-07-06T19:28:20.943705",
      "status": "Final",
      "templateParameter": false,
      "ucum": null,
      "uid": "UnitDefinition_000144",
      "unitDimension": {
        "name": "Relative weight",
        "termUid": "CTTerm_000222"
      },
      "unitSubsets": [],
      "usConventionalUnit": true,
      "userInitials": "unknown-user",
      "version": "1.0"
    },
    {
      "changeDescription": "Approved version",
      "comment": "0",
      "conversionFactorToMaster": 1.0,
      "convertibleUnit": true,
      "ctUnits": [
        {
          "name": "mol/g",
          "termUid": "C68893_mol/g"
        }
      ],
      "definition": "CDISC code: C68893_x005F_x000D_\nCDISC submission value: mol/g_x005F_x000D_\nCDISC synonym(s): Mole per Gram_x005F_x000D_\nCDISC definition: A unit of amount of substance content (molality unit) defined as one mole of solute per one gram of solvent.(NCI) _x005F_x000D_\nNCI preferred term: Mole per Gram",
      "displayUnit": true,
      "endDate": null,
      "legacyCode": "mol/g",
      "libraryName": "Sponsor",
      "masterUnit": true,
      "molecularWeightConvExpon": 1,
      "name": "mol/g",
      "order": 1750,
      "siUnit": false,
      "startDate": "2022-07-06T19:28:21.112044",
      "status": "Final",
      "templateParameter": false,
      "ucum": null,
      "uid": "UnitDefinition_000145",
      "unitDimension": {
        "name": "Relative weight",
        "termUid": "CTTerm_000222"
      },
      "unitSubsets": [],
      "usConventionalUnit": true,
      "userInitials": "unknown-user",
      "version": "1.0"
    },
    {
      "changeDescription": "Approved version",
      "comment": "0",
      "conversionFactorToMaster": 1.0,
      "convertibleUnit": true,
      "ctUnits": [
        {
          "name": "C",
          "termUid": "C42559_C"
        }
      ],
      "definition": "<CodeLists>_x005F_x000D_\n<CodeList Value=\"UNIT\"></CodeList>_x005F_x000D_\n<CodeList Value=\"VSRESU\"></CodeList>_x005F_x000D_\n</CodeLists>_x005F_x000D_\nCDISC code: C42559_x005F_x000D_\nCDISC submission value: C_x005F_x000D_\nCDISC synonym: Degree Celsius_x005F_x000D_\nCDISC Description: A unit of temperature of the temperature scale designed so that the freezing point of water is 0 degrees and the boiling point is 100 degrees at standard atmospheric pressure. The current official definition of the Celsius sets 0.01 C to be at the triple point of water and a degree to be 1/273.16 of the difference in temperature between the triple point of water and absolute zero. One degree Celsius represents the same temperature difference as one Kelvin.(NCI)_x005F_x000D_\nNCI preferred term: Degree Celsius_x005F_x000D_\n",
      "displayUnit": true,
      "endDate": null,
      "legacyCode": "C",
      "libraryName": "Sponsor",
      "masterUnit": true,
      "molecularWeightConvExpon": null,
      "name": "C",
      "order": 1910,
      "siUnit": false,
      "startDate": "2022-07-06T19:28:21.341167",
      "status": "Final",
      "templateParameter": false,
      "ucum": null,
      "uid": "UnitDefinition_000146",
      "unitDimension": {
        "name": "Temperature",
        "termUid": "CTTerm_000256"
      },
      "unitSubsets": [],
      "usConventionalUnit": true,
      "userInitials": "unknown-user",
      "version": "1.0"
    },
    {
      "changeDescription": "Approved version",
      "comment": "Note that this unit exists in four unit dimensions, i.e Beat rate, elimination, Respiratory rate and count per time",
      "conversionFactorToMaster": 1.0,
      "convertibleUnit": true,
      "ctUnits": [
        {
          "name": "breaths/min",
          "termUid": "C49674_breaths/min"
        }
      ],
      "definition": "<CodeLists>_x005F_x000D_\n<CodeList Value=\"UNIT\"></CodeList>_x005F_x000D_\n<CodeList Value=\"VSRESU\"></CodeList>_x005F_x000D_\n</CodeLists>_x005F_x000D_\nCDISC code: C49674_x005F_x000D_\nCDISC submission value: BREATHS/MIN_x005F_x000D_\nCDISC synonym: Breaths per Minute_x005F_x000D_\nCDISC Description: The number of breaths (inhalation and exhalation) taken per minute time. (NCI)_x005F_x000D_\nNCI preferred term: Breaths per Minute",
      "displayUnit": true,
      "endDate": null,
      "legacyCode": "breaths/min",
      "libraryName": "Sponsor",
      "masterUnit": true,
      "molecularWeightConvExpon": null,
      "name": "breaths/min",
      "order": 1760,
      "siUnit": false,
      "startDate": "2022-07-06T19:28:21.642335",
      "status": "Final",
      "templateParameter": false,
      "ucum": {
        "name": "/min",
        "termUid": "DictionaryTerm_000773"
      },
      "uid": "UnitDefinition_000147",
      "unitDimension": {
        "name": "Respiratory rate",
        "termUid": "CTTerm_000221"
      },
      "unitSubsets": [],
      "usConventionalUnit": true,
      "userInitials": "unknown-user",
      "version": "1.0"
    },
    {
      "changeDescription": "Approved version",
      "comment": "0",
      "conversionFactorToMaster": 1.0,
      "convertibleUnit": false,
      "ctUnits": [
        {
          "name": "Kelvin",
          "termUid": "C42537_K"
        }
      ],
      "definition": "A basic unit of thermodynamic temperature, one of the seven base units of the International System of Units (Systeme International d'Unites, SI). It is 1/273.16th of the thermodynamic temperature of the triple point of water. This sets the size of the kelvin unit for temperature differences and defines the thermodynamic temperature of an equilibrium mixture of waters ice-liquid-vapor as 273.16 K, where 0 K is the lowest possible temperature (\"absolute zero\").",
      "displayUnit": true,
      "endDate": null,
      "legacyCode": "K",
      "libraryName": "Sponsor",
      "masterUnit": false,
      "molecularWeightConvExpon": null,
      "name": "K",
      "order": 1910,
      "siUnit": true,
      "startDate": "2022-07-06T19:28:21.956115",
      "status": "Final",
      "templateParameter": false,
      "ucum": {
        "name": "K",
        "termUid": "DictionaryTerm_000138"
      },
      "uid": "UnitDefinition_000148",
      "unitDimension": {
        "name": "Temperature",
        "termUid": "CTTerm_000256"
      },
      "unitSubsets": [],
      "usConventionalUnit": false,
      "userInitials": "unknown-user",
      "version": "1.0"
    },
    {
      "changeDescription": "Approved version",
      "comment": "0",
      "conversionFactorToMaster": 1.0,
      "convertibleUnit": false,
      "ctUnits": [
        {
          "name": "F",
          "termUid": "C44277_F"
        }
      ],
      "definition": "<CodeLists>_x005F_x000D_\n<CodeList Value=\"UNIT\"></CodeList>_x005F_x000D_\n<CodeList Value=\"VSRESU\"></CodeList>_x005F_x000D_\n</CodeLists>_x005F_x000D_\nCDISC code: C44277_x005F_x000D_\nCDISC submission value: F_x005F_x000D_\nCDISC synonym: Degree Fahrenheit_x005F_x000D_\nCDISC Description: The Fahrenheit temperature scale is named after the German physicist Gabriel Fahrenheit (1686-1736), who proposed it in 1724. In this scale, the freezing point of water is 32 degrees Fahrenheit and the boiling point is 212 degrees, placing the boiling and melting points of water 180 degrees apart. In this scale a degree Fahrenheit is 5/9ths of a Kelvin (or of a degree Celsius), and minus 40 degrees Fahrenheit is equal to minus 40 degrees Celsius. (NCI)_x005F_x000D_\nNCI preferred term: Degree Fahrenheit_x005F_x000D_\n",
      "displayUnit": true,
      "endDate": null,
      "legacyCode": "F",
      "libraryName": "Sponsor",
      "masterUnit": false,
      "molecularWeightConvExpon": null,
      "name": "F",
      "order": 1910,
      "siUnit": false,
      "startDate": "2022-07-06T19:28:22.247627",
      "status": "Final",
      "templateParameter": false,
      "ucum": {
        "name": "F",
        "termUid": "DictionaryTerm_000195"
      },
      "uid": "UnitDefinition_000149",
      "unitDimension": {
        "name": "Temperature",
        "termUid": "CTTerm_000256"
      },
      "unitSubsets": [],
      "usConventionalUnit": false,
      "userInitials": "unknown-user",
      "version": "1.0"
    },
    {
      "changeDescription": "Approved version",
      "comment": "0",
      "conversionFactorToMaster": 1000.0,
      "convertibleUnit": true,
      "ctUnits": [
        {
          "name": "Hour Times Nanogram per Milliliter",
          "termUid": "C85624_h*ng/mL"
        }
      ],
      "definition": "PK Parameter Units of Measure. Hours times nanograms per milliliter.",
      "displayUnit": true,
      "endDate": null,
      "legacyCode": "h*ng/mL",
      "libraryName": "Sponsor",
      "masterUnit": false,
      "molecularWeightConvExpon": 0,
      "name": "h*ng/mL",
      "order": 100,
      "siUnit": false,
      "startDate": "2022-07-06T19:28:29.992285",
      "status": "Final",
      "templateParameter": false,
      "ucum": null,
      "uid": "UnitDefinition_000172",
      "unitDimension": {
        "name": "Time times concentration",
        "termUid": "CTTerm_000260"
      },
      "unitSubsets": [],
      "usConventionalUnit": true,
      "userInitials": "unknown-user",
      "version": "1.0"
    },
    {
      "changeDescription": "Approved version",
      "comment": "0",
      "conversionFactorToMaster": 16.67,
      "convertibleUnit": true,
      "ctUnits": [
        {
          "name": "Minute Times Nanogram per Milliliter",
          "termUid": "C85732_min*ng/mL"
        }
      ],
      "definition": "CDISC code: C85732_x005F_x000D_\nCDISC submission value: min*ng/mL_x005F_x000D_\nCDISC synonym(s): ng*min/mL; min*ug/L; ug*min/L; min*ng/mL_x005F_x000D_\nCDISC definition: Minutes times nanograms per milliliter._x005F_x000D_\nNCI preferred term: Minute Times Nanogram per Milliliter\"",
      "displayUnit": true,
      "endDate": null,
      "legacyCode": "min*ng/mL",
      "libraryName": "Sponsor",
      "masterUnit": false,
      "molecularWeightConvExpon": null,
      "name": "min*ng/mL",
      "order": 36,
      "siUnit": false,
      "startDate": "2022-07-06T19:28:30.240298",
      "status": "Final",
      "templateParameter": false,
      "ucum": null,
      "uid": "UnitDefinition_000173",
      "unitDimension": {
        "name": "Time times concentration",
        "termUid": "CTTerm_000260"
      },
      "unitSubsets": [],
      "usConventionalUnit": true,
      "userInitials": "unknown-user",
      "version": "1.0"
    },
    {
      "changeDescription": "Approved version",
      "comment": "0",
      "conversionFactorToMaster": 1000000.0,
      "convertibleUnit": true,
      "ctUnits": [
        {
          "name": "Hour Times Micromole per Milliliter",
          "termUid": "C85618_h*mmol/L"
        }
      ],
      "definition": "h*mmol/L",
      "displayUnit": true,
      "endDate": null,
      "legacyCode": "h*mmol/L",
      "libraryName": "Sponsor",
      "masterUnit": false,
      "molecularWeightConvExpon": 1,
      "name": "h*mmol/L",
      "order": 100,
      "siUnit": false,
      "startDate": "2022-07-06T19:28:30.271878",
      "status": "Final",
      "templateParameter": false,
      "ucum": null,
      "uid": "UnitDefinition_000174",
      "unitDimension": {
        "name": "Time times concentration",
        "termUid": "CTTerm_000260"
      },
      "unitSubsets": [],
      "usConventionalUnit": true,
      "userInitials": "unknown-user",
      "version": "1.0"
    },
    {
      "changeDescription": "Approved version",
      "comment": "0",
      "conversionFactorToMaster": 0.001,
      "convertibleUnit": true,
      "ctUnits": [
        {
          "name": "Hour Times Femtomole per Milliliter",
          "termUid": "C85612_h*pmol/L"
        }
      ],
      "definition": "h*pmol/L",
      "displayUnit": true,
      "endDate": null,
      "legacyCode": "h*pmol/L",
      "libraryName": "Sponsor",
      "masterUnit": false,
      "molecularWeightConvExpon": 1,
      "name": "h*pmol/L",
      "order": 100,
      "siUnit": false,
      "startDate": "2022-07-06T19:28:30.490709",
      "status": "Final",
      "templateParameter": false,
      "ucum": null,
      "uid": "UnitDefinition_000175",
      "unitDimension": {
        "name": "Time times concentration",
        "termUid": "CTTerm_000260"
      },
      "unitSubsets": [],
      "usConventionalUnit": true,
      "userInitials": "unknown-user",
      "version": "1.0"
    },
    {
      "changeDescription": "Approved version",
      "comment": "0",
      "conversionFactorToMaster": 0.01667,
      "convertibleUnit": true,
      "ctUnits": [
        {
          "name": "Minute Times Picomole per Milliliter",
          "termUid": "C85735_min*nmol/L"
        }
      ],
      "definition": "NOTE: PLEASE AVOID ATTACHING THIS UNIT TO ANY TOPIC CODE_x005F_x000D_\n_x005F_x000D_\nCDISC code: C85735_x005F_x000D_\nCDISC submission value: min*nmol/L",
      "displayUnit": true,
      "endDate": null,
      "legacyCode": "nM*min",
      "libraryName": "Sponsor",
      "masterUnit": false,
      "molecularWeightConvExpon": 1,
      "name": "nM*min",
      "order": 35,
      "siUnit": false,
      "startDate": "2022-07-06T19:28:30.823907",
      "status": "Final",
      "templateParameter": false,
      "ucum": null,
      "uid": "UnitDefinition_000176",
      "unitDimension": {
        "name": "Time times concentration",
        "termUid": "CTTerm_000260"
      },
      "unitSubsets": [],
      "usConventionalUnit": true,
      "userInitials": "unknown-user",
      "version": "1.0"
    },
    {
      "changeDescription": "Approved version",
      "comment": "0",
      "conversionFactorToMaster": 16666.67,
      "convertibleUnit": true,
      "ctUnits": [
        {
          "name": "Minute Times Micromole per Milliliter",
          "termUid": "C85728_min*mmol/L"
        }
      ],
      "definition": "Minutes times millimoles per liter (area under the curve).",
      "displayUnit": true,
      "endDate": null,
      "legacyCode": "min*mmol/L",
      "libraryName": "Sponsor",
      "masterUnit": false,
      "molecularWeightConvExpon": 1,
      "name": "min*mmol/L",
      "order": 100,
      "siUnit": false,
      "startDate": "2022-07-06T19:28:31.155123",
      "status": "Final",
      "templateParameter": false,
      "ucum": null,
      "uid": "UnitDefinition_000177",
      "unitDimension": {
        "name": "Time times concentration",
        "termUid": "CTTerm_000260"
      },
      "unitSubsets": [],
      "usConventionalUnit": true,
      "userInitials": "unknown-user",
      "version": "1.0"
    },
    {
      "changeDescription": "Approved version",
      "comment": "0",
      "conversionFactorToMaster": 16.6666667,
      "convertibleUnit": true,
      "ctUnits": [
        {
          "name": "Minute Times Nanomole per Milliliter",
          "termUid": "C85733_min*umol/L"
        }
      ],
      "definition": "Unit for AUC umol*min/L",
      "displayUnit": true,
      "endDate": null,
      "legacyCode": "min*umol/L",
      "libraryName": "Sponsor",
      "masterUnit": false,
      "molecularWeightConvExpon": 1,
      "name": "min*umol/L",
      "order": 100,
      "siUnit": false,
      "startDate": "2022-07-06T19:28:31.368234",
      "status": "Final",
      "templateParameter": false,
      "ucum": null,
      "uid": "UnitDefinition_000178",
      "unitDimension": {
        "name": "Time times concentration",
        "termUid": "CTTerm_000260"
      },
      "unitSubsets": [],
      "usConventionalUnit": true,
      "userInitials": "unknown-user",
      "version": "1.0"
    },
    {
      "changeDescription": "Approved version",
      "comment": "0",
      "conversionFactorToMaster": 1.0,
      "convertibleUnit": true,
      "ctUnits": [
        {
          "name": "Hour Times Picomole per Milliliter",
          "termUid": "C85640_h*nmol/L"
        }
      ],
      "definition": "Hours times nanomoles per liter (area under the curve).",
      "displayUnit": true,
      "endDate": null,
      "legacyCode": "h*nmol/L",
      "libraryName": "Sponsor",
      "masterUnit": true,
      "molecularWeightConvExpon": 1,
      "name": "h*nmol/L",
      "order": 100,
      "siUnit": false,
      "startDate": "2022-07-06T19:28:31.561215",
      "status": "Final",
      "templateParameter": false,
      "ucum": null,
      "uid": "UnitDefinition_000179",
      "unitDimension": {
        "name": "Time times concentration",
        "termUid": "CTTerm_000260"
      },
      "unitSubsets": [],
      "usConventionalUnit": true,
      "userInitials": "unknown-user",
      "version": "1.0"
    },
    {
      "changeDescription": "Approved version",
      "comment": "0",
      "conversionFactorToMaster": 16666.67,
      "convertibleUnit": true,
      "ctUnits": [
        {
          "name": "Minute Times Microgram per Milliliter",
          "termUid": "C85727_min*ug/mL"
        }
      ],
      "definition": "CDISC code: C85727_x005F_x000D_\nCDISC submission value: min*ug/mL_x005F_x000D_\nCDISC synonym(s): ug*min/mL; min*mg/L; mg*min/L; min*mcg/mL; mcg*min/mL_x005F_x000D_\nCDISC definition: Minutes times micrograms per milliliter_x005F_x000D_\nNCI preferred term:Minute Times Microgram per Milliliter_x005F_x000D_\n",
      "displayUnit": true,
      "endDate": null,
      "legacyCode": "min*ug/mL",
      "libraryName": "Sponsor",
      "masterUnit": false,
      "molecularWeightConvExpon": null,
      "name": "min*ug/mL",
      "order": 36,
      "siUnit": false,
      "startDate": "2022-07-06T19:28:31.746250",
      "status": "Final",
      "templateParameter": false,
      "ucum": null,
      "uid": "UnitDefinition_000180",
      "unitDimension": {
        "name": "Time times concentration",
        "termUid": "CTTerm_000260"
      },
      "unitSubsets": [],
      "usConventionalUnit": true,
      "userInitials": "unknown-user",
      "version": "1.0"
    },
    {
      "changeDescription": "Approved version",
      "comment": "0",
      "conversionFactorToMaster": 1.67e-05,
      "convertibleUnit": true,
      "ctUnits": [
        {
          "name": "Minute Times Picomole Per Liter",
          "termUid": "C106543_min*pmol/L"
        }
      ],
      "definition": "Minutes times picomoles per liter (area under the curve). _x005F_x000D_\n",
      "displayUnit": true,
      "endDate": null,
      "legacyCode": "min*pmol/L",
      "libraryName": "Sponsor",
      "masterUnit": false,
      "molecularWeightConvExpon": 1,
      "name": "min*pmol/L",
      "order": 100,
      "siUnit": false,
      "startDate": "2022-07-06T19:28:31.976672",
      "status": "Final",
      "templateParameter": false,
      "ucum": null,
      "uid": "UnitDefinition_000181",
      "unitDimension": {
        "name": "Time times concentration",
        "termUid": "CTTerm_000260"
      },
      "unitSubsets": [],
      "usConventionalUnit": true,
      "userInitials": "unknown-user",
      "version": "1.0"
    },
    {
      "changeDescription": "Approved version",
      "comment": "0",
      "conversionFactorToMaster": 1000000.0,
      "convertibleUnit": true,
      "ctUnits": [
        {
          "name": "Hour Times Microgram per Milliliter",
          "termUid": "C85615_h*ug/mL"
        }
      ],
      "definition": "Hours times micrograms (area under the curve), divided by mililiter",
      "displayUnit": false,
      "endDate": null,
      "legacyCode": "h*ug/mL",
      "libraryName": "Sponsor",
      "masterUnit": false,
      "molecularWeightConvExpon": 0,
      "name": "h*ug/mL",
      "order": 100,
      "siUnit": false,
      "startDate": "2022-07-06T19:28:32.033282",
      "status": "Final",
      "templateParameter": false,
      "ucum": null,
      "uid": "UnitDefinition_000182",
      "unitDimension": {
        "name": "Time times concentration",
        "termUid": "CTTerm_000260"
      },
      "unitSubsets": [],
      "usConventionalUnit": true,
      "userInitials": "unknown-user",
      "version": "1.0"
    },
    {
      "changeDescription": "Approved version",
      "comment": "0",
      "conversionFactorToMaster": 0.01667,
      "convertibleUnit": true,
      "ctUnits": [
        {
          "name": "Minute Times Picomole per Milliliter",
          "termUid": "C85735_min*nmol/L"
        }
      ],
      "definition": "Minutes times nanomoles per liter (area under the curve).",
      "displayUnit": true,
      "endDate": null,
      "legacyCode": "min*nmol/L",
      "libraryName": "Sponsor",
      "masterUnit": false,
      "molecularWeightConvExpon": 1,
      "name": "min*nmol/L",
      "order": 100,
      "siUnit": false,
      "startDate": "2022-07-06T19:28:32.315794",
      "status": "Final",
      "templateParameter": false,
      "ucum": null,
      "uid": "UnitDefinition_000183",
      "unitDimension": {
        "name": "Time times concentration",
        "termUid": "CTTerm_000260"
      },
      "unitSubsets": [],
      "usConventionalUnit": true,
      "userInitials": "unknown-user",
      "version": "1.0"
    },
    {
      "changeDescription": "Approved version",
      "comment": "0",
      "conversionFactorToMaster": 1.0,
      "convertibleUnit": true,
      "ctUnits": [
        {
          "name": "Hour Times Picogram per Milliliter",
          "termUid": "C85635_h*pg/mL"
        }
      ],
      "definition": "h*pg/mL",
      "displayUnit": true,
      "endDate": null,
      "legacyCode": "h*pg/mL",
      "libraryName": "Sponsor",
      "masterUnit": false,
      "molecularWeightConvExpon": 0,
      "name": "h*pg/mL",
      "order": 100,
      "siUnit": false,
      "startDate": "2022-07-06T19:28:32.558628",
      "status": "Final",
      "templateParameter": false,
      "ucum": null,
      "uid": "UnitDefinition_000184",
      "unitDimension": {
        "name": "Time times concentration",
        "termUid": "CTTerm_000260"
      },
      "unitSubsets": [],
      "usConventionalUnit": true,
      "userInitials": "unknown-user",
      "version": "1.0"
    },
    {
      "changeDescription": "Approved version",
      "comment": "0",
      "conversionFactorToMaster": 0.0166667,
      "convertibleUnit": true,
      "ctUnits": [
        {
          "name": "Minute Times Picogram per Milliliter",
          "termUid": "C85734_min*pg/mL"
        }
      ],
      "definition": "Minutes times picograms per milliliter (area under the curve)._x005F_x000D_\n",
      "displayUnit": true,
      "endDate": null,
      "legacyCode": "min*pg/mL",
      "libraryName": "Sponsor",
      "masterUnit": false,
      "molecularWeightConvExpon": 0,
      "name": "min*pg/mL",
      "order": 100,
      "siUnit": false,
      "startDate": "2022-07-06T19:28:32.792556",
      "status": "Final",
      "templateParameter": false,
      "ucum": null,
      "uid": "UnitDefinition_000185",
      "unitDimension": {
        "name": "Time times concentration",
        "termUid": "CTTerm_000260"
      },
      "unitSubsets": [],
      "usConventionalUnit": true,
      "userInitials": "unknown-user",
      "version": "1.0"
    },
    {
      "changeDescription": "Approved version",
      "comment": "0",
      "conversionFactorToMaster": 24000000.0,
      "convertibleUnit": true,
      "ctUnits": [
        {
          "name": "Day Times Microgram per Milliliter",
          "termUid": "C85586_day*ug/mL"
        }
      ],
      "definition": "Days times micrograms per milliliter (area under the curve)._x005F_x000D_\nCDISC code: C85586_x005F_x000D_\nCDISC submission value: day*ug/mL_x005F_x000D_\nCDISC synonym(s):_x005F_x000D_\nCDISC definition: Days times micrograms per milliliter (area under the curve)._x005F_x000D_\nNCI preferred term: Day Times Microgram per Milliliter_x005F_x000D_\n_x005F_x000D_\n",
      "displayUnit": true,
      "endDate": null,
      "legacyCode": "day*ug/mL",
      "libraryName": "Sponsor",
      "masterUnit": false,
      "molecularWeightConvExpon": null,
      "name": "day*ug/mL",
      "order": 2001,
      "siUnit": false,
      "startDate": "2022-07-06T19:28:33.172933",
      "status": "Final",
      "templateParameter": false,
      "ucum": null,
      "uid": "UnitDefinition_000186",
      "unitDimension": {
        "name": "Time times concentration",
        "termUid": "CTTerm_000260"
      },
      "unitSubsets": [],
      "usConventionalUnit": true,
      "userInitials": "unknown-user",
      "version": "1.0"
    },
    {
      "changeDescription": "Approved version",
      "comment": "NN defines IU=U",
      "conversionFactorToMaster": 1.0,
      "convertibleUnit": true,
      "ctUnits": [
        {
          "name": "IU/L",
          "termUid": "C67376_IU/L"
        },
        {
          "name": "International Unit per Liter",
          "termUid": "C67376_mIU/mL"
        }
      ],
      "definition": "CDISC code: C67376_x005F_x000D_\nCDISC submission value: IU/L_x005F_x000D_\nCDISC synonym: International Unit per Liter; IU/L; mIU/mL_x005F_x000D_\nCDISC Description: Unit of arbitrary substance concentration (biologic activity concentration) defined as the concentration of one international unit per one liter of system volume.(NCI)_x005F_x000D_\nNCI preferred term: International Unit per Liter",
      "displayUnit": true,
      "endDate": null,
      "legacyCode": "IU/L",
      "libraryName": "Sponsor",
      "masterUnit": false,
      "molecularWeightConvExpon": 0,
      "name": "IU/L",
      "order": 2000,
      "siUnit": true,
      "startDate": "2022-07-06T19:28:33.686970",
      "status": "Final",
      "templateParameter": false,
      "ucum": {
        "name": "[IU]/L",
        "termUid": "DictionaryTerm_000300"
      },
      "uid": "UnitDefinition_000188",
      "unitDimension": {
        "name": "U/IU Concentration",
        "termUid": "CTTerm_000219"
      },
      "unitSubsets": [],
      "usConventionalUnit": true,
      "userInitials": "unknown-user",
      "version": "1.0"
    },
    {
      "changeDescription": "Approved version",
      "comment": "NN defines IU=U",
      "conversionFactorToMaster": 1e-06,
      "convertibleUnit": true,
      "ctUnits": [
        {
          "name": "uIU/L",
          "termUid": "C124464_uIU/L"
        }
      ],
      "definition": "CDISC code: C124464_x005F_x000D_\nCDISC submission value: uIU/L_x005F_x000D_\nCDISC synonym(s): _x005F_x000D_\nCDISC definition:A unit of concentration (biologic activity) equal to one micro-international unit of substance per liter of solution._x005F_x000D_\nNCI preferred term: Micro-International Unit per Liter_x005F_x000D_\n_x005F_x000D_\n",
      "displayUnit": true,
      "endDate": null,
      "legacyCode": "uIU/L",
      "libraryName": "Sponsor",
      "masterUnit": false,
      "molecularWeightConvExpon": null,
      "name": "uIU/L",
      "order": 2000,
      "siUnit": false,
      "startDate": "2022-07-06T19:28:34.270210",
      "status": "Final",
      "templateParameter": false,
      "ucum": {
        "name": "u[IU]/L",
        "termUid": "DictionaryTerm_000416"
      },
      "uid": "UnitDefinition_000190",
      "unitDimension": {
        "name": "U/IU Concentration",
        "termUid": "CTTerm_000219"
      },
      "unitSubsets": [],
      "usConventionalUnit": true,
      "userInitials": "unknown-user",
      "version": "1.0"
    },
    {
      "changeDescription": "Approved version",
      "comment": "NN defines IU=U",
      "conversionFactorToMaster": 1000.0,
      "convertibleUnit": true,
      "ctUnits": [
        {
          "name": "IU/mL",
          "termUid": "C67377_IU/mL"
        }
      ],
      "definition": "KIU/L is equivalent to_x005F_x000D_\nCDISC code: C67377_x005F_x000D_\nCDISC submission value: IU/mL_x005F_x000D_\nCDISC synonym(s): IE/mL; International Unit per Milliliter; Kilo International Unit per Liter; kIU/L_x005F_x000D_\nCDISC definition: A unit of concentration (biologic activity) equal to one international unit of substance per milliliter of solution._x005F_x000D_\nNCI preferred term: International Unit per Milliliter",
      "displayUnit": true,
      "endDate": null,
      "legacyCode": "kIU/L",
      "libraryName": "Sponsor",
      "masterUnit": false,
      "molecularWeightConvExpon": 0,
      "name": "kIU/L",
      "order": 2000,
      "siUnit": false,
      "startDate": "2022-07-06T19:28:34.500732",
      "status": "Final",
      "templateParameter": false,
      "ucum": {
        "name": "k[IU]/L",
        "termUid": "DictionaryTerm_000318"
      },
      "uid": "UnitDefinition_000191",
      "unitDimension": {
        "name": "U/IU Concentration",
        "termUid": "CTTerm_000219"
      },
      "unitSubsets": [],
      "usConventionalUnit": true,
      "userInitials": "unknown-user",
      "version": "1.0"
    },
    {
      "changeDescription": "Approved version",
      "comment": "NN defines IU=U",
      "conversionFactorToMaster": 0.001,
      "convertibleUnit": true,
      "ctUnits": [
        {
          "name": "mIU/L",
          "termUid": "C67405_mIU/L"
        },
        {
          "name": "uIU/mL",
          "termUid": "C67405_uIU/mL"
        }
      ],
      "definition": "mIU/L_x005F_x000D_\n",
      "displayUnit": true,
      "endDate": null,
      "legacyCode": "mIU/L",
      "libraryName": "Sponsor",
      "masterUnit": false,
      "molecularWeightConvExpon": 0,
      "name": "mIU/L",
      "order": 2000,
      "siUnit": true,
      "startDate": "2022-07-06T19:28:34.814968",
      "status": "Final",
      "templateParameter": false,
      "ucum": {
        "name": "m[IU]/L",
        "termUid": "DictionaryTerm_000472"
      },
      "uid": "UnitDefinition_000192",
      "unitDimension": {
        "name": "U/IU Concentration",
        "termUid": "CTTerm_000219"
      },
      "unitSubsets": [],
      "usConventionalUnit": true,
      "userInitials": "unknown-user",
      "version": "1.0"
    },
    {
      "changeDescription": "Approved version",
      "comment": "NN defines IU=U",
      "conversionFactorToMaster": 1.0,
      "convertibleUnit": true,
      "ctUnits": [
        {
          "name": "IU/L",
          "termUid": "C67376_IU/L"
        },
        {
          "name": "International Unit per Liter",
          "termUid": "C67376_mIU/mL"
        }
      ],
      "definition": "milli IU per milliliter. mIU/mL is equivalent to IU/L",
      "displayUnit": true,
      "endDate": null,
      "legacyCode": "mIU/mL",
      "libraryName": "Sponsor",
      "masterUnit": false,
      "molecularWeightConvExpon": 0,
      "name": "mIU/mL",
      "order": 2000,
      "siUnit": false,
      "startDate": "2022-07-06T19:28:35.124963",
      "status": "Final",
      "templateParameter": false,
      "ucum": {
        "name": "m[IU]/mL",
        "termUid": "DictionaryTerm_000466"
      },
      "uid": "UnitDefinition_000193",
      "unitDimension": {
        "name": "U/IU Concentration",
        "termUid": "CTTerm_000219"
      },
      "unitSubsets": [],
      "usConventionalUnit": true,
      "userInitials": "unknown-user",
      "version": "1.0"
    },
    {
      "changeDescription": "Approved version",
      "comment": "NN defines IU=U",
      "conversionFactorToMaster": 10.0,
      "convertibleUnit": true,
      "ctUnits": [
        {
          "name": "IU/dL",
          "termUid": "C120848_IU/dL"
        }
      ],
      "definition": "CDISC code: C120848\nCodelist Code: C71620\nCodelist Name: Unit\nCDISC Submission Value: IU/dL\nCDISC Definition: Unit of arbitrary substance concentration (biologic activity concentration) defined as the concentration of one international unit per one deciliter of system volume.\nNCI Preferred Term: International Unit per Deciliter",
      "displayUnit": true,
      "endDate": null,
      "legacyCode": "IU/dL",
      "libraryName": "Sponsor",
      "masterUnit": false,
      "molecularWeightConvExpon": null,
      "name": "IU/dL",
      "order": 1,
      "siUnit": false,
      "startDate": "2022-07-06T19:28:35.591017",
      "status": "Final",
      "templateParameter": false,
      "ucum": {
        "name": "[IU]/dL",
        "termUid": "DictionaryTerm_000294"
      },
      "uid": "UnitDefinition_000195",
      "unitDimension": {
        "name": "U/IU Concentration",
        "termUid": "CTTerm_000219"
      },
      "unitSubsets": [],
      "usConventionalUnit": true,
      "userInitials": "unknown-user",
      "version": "1.0"
    },
    {
      "changeDescription": "Approved version",
      "comment": "NN defines IU=U",
      "conversionFactorToMaster": 0.001,
      "convertibleUnit": true,
      "ctUnits": [
        {
          "name": "mIU/L",
          "termUid": "C67405_mIU/L"
        },
        {
          "name": "uIU/mL",
          "termUid": "C67405_uIU/mL"
        }
      ],
      "definition": "<CodeLists>_x005F_x000D_\n<CodeList Value=\"UNIT\"></CodeList>_x005F_x000D_\n<CodeList Value=\"PKUNIT\"></CodeList>_x005F_x000D_\n</CodeLists>_x005F_x000D_\nCDISC code: C67405_x005F_x000D_\nCDISC submission value: uIU/mL_x005F_x000D_\nCDISC synonym: Micro-International Unit per milliliter; mIU/L; mcIU/mL; uIU/mL_x005F_x000D_\nCDISC Description: Microinternational units per milliliter._x005F_x000D_\nNCI preferred term: uIU/mL",
      "displayUnit": true,
      "endDate": null,
      "legacyCode": "uIU/mL",
      "libraryName": "Sponsor",
      "masterUnit": false,
      "molecularWeightConvExpon": 0,
      "name": "uIU/mL",
      "order": 2000,
      "siUnit": false,
      "startDate": "2022-07-06T19:28:36.159072",
      "status": "Final",
      "templateParameter": false,
      "ucum": {
        "name": "u[IU]/mL",
        "termUid": "DictionaryTerm_000374"
      },
      "uid": "UnitDefinition_000197",
      "unitDimension": {
        "name": "U/IU Concentration",
        "termUid": "CTTerm_000219"
      },
      "unitSubsets": [],
      "usConventionalUnit": true,
      "userInitials": "unknown-user",
      "version": "1.0"
    },
    {
      "changeDescription": "Approved version",
      "comment": "NN defines IU=U",
      "conversionFactorToMaster": 1000.0,
      "convertibleUnit": true,
      "ctUnits": [
        {
          "name": "IU/mL",
          "termUid": "C67377_IU/mL"
        }
      ],
      "definition": "CDISC code: C67377_x005F_x000D_\nCDISC submission value: IU/mL_x005F_x000D_\nCDISC synonym: International Unit per Milliliter; kIU/L; Kilo International Unit per Liter_x005F_x000D_\nCDISC Description: Unit of arbitrary substance concentration (biologic activity concentration) defined as the concentration of one international unit per one milliliter of system volume.(NCI)_x005F_x000D_\nNCI preferred term: International Unit per Milliliter",
      "displayUnit": true,
      "endDate": null,
      "legacyCode": "IU/mL",
      "libraryName": "Sponsor",
      "masterUnit": false,
      "molecularWeightConvExpon": 0,
      "name": "IU/mL",
      "order": 2000,
      "siUnit": false,
      "startDate": "2022-07-06T19:28:36.405762",
      "status": "Final",
      "templateParameter": false,
      "ucum": {
        "name": "[IU]/mL",
        "termUid": "DictionaryTerm_000303"
      },
      "uid": "UnitDefinition_000198",
      "unitDimension": {
        "name": "U/IU Concentration",
        "termUid": "CTTerm_000219"
      },
      "unitSubsets": [],
      "usConventionalUnit": true,
      "userInitials": "unknown-user",
      "version": "1.0"
    },
    {
      "changeDescription": "Approved version",
      "comment": "0",
      "conversionFactorToMaster": 59.88,
      "convertibleUnit": true,
      "ctUnits": [
        {
          "name": "ukat/L",
          "termUid": "C67397_ukat/L"
        }
      ],
      "definition": "CDISC code: C67397_x005F_x000D_\nCDISC submission value: ukat/L_x005F_x000D_\nCDISC synonym: Microkatal per Liter; mckat/L_x005F_x000D_\nCDISC Description: Unit of catalytic activity concentration defined as activity equal to one millionth of katal per one liter of the system volume.(NCI)_x005F_x000D_\nNCI preferred term: Microkatal per Liter",
      "displayUnit": true,
      "endDate": null,
      "legacyCode": "ukat/L",
      "libraryName": "Sponsor",
      "masterUnit": false,
      "molecularWeightConvExpon": null,
      "name": "ukat/L",
      "order": 2000,
      "siUnit": true,
      "startDate": "2022-07-06T19:28:36.640765",
      "status": "Final",
      "templateParameter": false,
      "ucum": null,
      "uid": "UnitDefinition_000199",
      "unitDimension": {
        "name": "U/IU Concentration",
        "termUid": "CTTerm_000219"
      },
      "unitSubsets": [],
      "usConventionalUnit": true,
      "userInitials": "unknown-user",
      "version": "1.0"
    },
    {
      "changeDescription": "Approved version",
      "comment": "0",
      "conversionFactorToMaster": 0.001,
      "convertibleUnit": true,
      "ctUnits": [
        {
          "name": "mU/L",
          "termUid": "C67408_mU/L"
        }
      ],
      "definition": "CDISC code: C67408_x005F_x000D_\nCDISC submission value: mU/L_x005F_x000D_\nCDISC synonym: _x005F_x000D_\nCDISC Description: An arbitrary unit of substance concentration equal to the concentration at which one liter of mixture contains one thousandth of a unit of a substance._x005F_x000D_\nNCI preferred term: Microunit per Milliliter",
      "displayUnit": true,
      "endDate": null,
      "legacyCode": "mU/L",
      "libraryName": "Sponsor",
      "masterUnit": false,
      "molecularWeightConvExpon": 0,
      "name": "mU/L",
      "order": 2000,
      "siUnit": false,
      "startDate": "2022-07-06T19:28:37.067720",
      "status": "Final",
      "templateParameter": false,
      "ucum": {
        "name": "mU/L",
        "termUid": "DictionaryTerm_000469"
      },
      "uid": "UnitDefinition_000201",
